sessionFile,Practice,distPresence,trialType,chooseSessions.thisRepN,chooseSessions.thisTrialN,chooseSessions.thisN,chooseSessions.thisIndex,trials.thisRepN,trials.thisTrialN,trials.thisN,trials.thisIndex,block,RespRT,targetShape,dist1Shape,dist2Shape,dist3Shape,dist4Shape,targetLoc,dist1Loc,dist2Loc,dist3Loc,dist4Loc,dist1Color,dist2Color,dist3Color,dist4Color,distPresence,singletonDistNumber,singletonResp,singleton distractor,targetResp,corrResp,Response_key,dist1Resp,dist2Resp,dist3Resp,dist4Resp,majorityColorName,majorityColor,singletonColor,singletonColorName,Response.keys,Response.corr,Response.rt,participant,study,session,age,gender,handedness,vision,date,expName,psychopyVersion,frameRate
practice.xlsx,practice,absent,search,0,0,0,0,0,0,0,3,0,1201.8082,circle,rectangle,pentagon,hexagon,diamond,DM,DR,UL,DL,UR,#6A6A6A,#6A6A6A,#6A6A6A,#6A6A6A,absent,absent,absent,absent,right,2,2,right,right,left,left,grey,#6A6A6A,#6A6A6A,absent,num_2,1,1.2018082,13995,1,1,21,f,right,normal,2022_Dec_06_1204,ADD/ADHD_FSM_NoProbe_version1,2021.1.4,99.91337505
practice.xlsx,practice,absent,search,0,0,0,0,0,1,1,10,0,1463.7575,circle,rectangle,pentagon,hexagon,diamond,UL,DM,DL,DR,UR,#6A6A6A,#6A6A6A,#6A6A6A,#6A6A6A,absent,absent,absent,absent,left,1,1,right,left,right,left,grey,#6A6A6A,#6A6A6A,absent,num_1,1,1.4637575,13995,1,1,21,f,right,normal,2022_Dec_06_1204,ADD/ADHD_FSM_NoProbe_version1,2021.1.4,99.91337505
practice.xlsx,practice,absent,search,0,0,0,0,0,2,2,2,0,1289.9862,circle,rectangle,pentagon,hexagon,diamond,DL,DM,UR,DR,UL,#6A6A6A,#6A6A6A,#6A6A6A,#6A6A6A,absent,absent,absent,absent,left,1,1,left,right,left,right,grey,#6A6A6A,#6A6A6A,absent,num_1,1,1.2899862,13995,1,1,21,f,right,normal,2022_Dec_06_1204,ADD/ADHD_FSM_NoProbe_version1,2021.1.4,99.91337505
practice.xlsx,practice,absent,search,0,0,0,0,0,3,3,9,0,1108.2368,circle,rectangle,pentagon,hexagon,diamond,DR,DL,UR,DM,UL,#6A6A6A,#6A6A6A,#6A6A6A,#6A6A6A,absent,absent,absent,absent,left,1,1,right,right,left,right,grey,#6A6A6A,#6A6A6A,absent,num_1,1,1.1082368,13995,1,1,21,f,right,normal,2022_Dec_06_1204,ADD/ADHD_FSM_NoProbe_version1,2021.1.4,99.91337505
practice.xlsx,practice,absent,search,0,0,0,0,0,4,4,8,0,1252.6375,circle,rectangle,pentagon,hexagon,diamond,UR,DM,DL,DR,UL,#6A6A6A,#6A6A6A,#6A6A6A,#6A6A6A,absent,absent,absent,absent,left,1,1,right,left,right,left,grey,#6A6A6A,#6A6A6A,absent,num_1,1,1.2526375,13995,1,1,21,f,right,normal,2022_Dec_06_1204,ADD/ADHD_FSM_NoProbe_version1,2021.1.4,99.91337505
practice.xlsx,practice,absent,search,0,0,0,0,0,5,5,7,0,750.912,circle,rectangle,pentagon,hexagon,diamond,UR,DL,DR,DM,UL,#6A6A6A,#6A6A6A,#6A6A6A,#6A6A6A,absent,absent,absent,absent,right,2,2,left,right,left,left,grey,#6A6A6A,#6A6A6A,absent,num_2,1,0.750912,13995,1,1,21,f,right,normal,2022_Dec_06_1204,ADD/ADHD_FSM_NoProbe_version1,2021.1.4,99.91337505
practice.xlsx,practice,absent,search,0,0,0,0,0,6,6,18,0,1421.5193,circle,rectangle,pentagon,hexagon,diamond,DL,UR,UL,DR,DM,#6A6A6A,#6A6A6A,#6A6A6A,#6A6A6A,absent,absent,absent,absent,right,2,2,right,right,left,left,grey,#6A6A6A,#6A6A6A,absent,num_2,1,1.4215193,13995,1,1,21,f,right,normal,2022_Dec_06_1204,ADD/ADHD_FSM_NoProbe_version1,2021.1.4,99.91337505
practice.xlsx,practice,absent,search,0,0,0,0,0,7,7,5,0,1219.8254,circle,rectangle,pentagon,hexagon,diamond,DM,UL,UR,DL,DR,#6A6A6A,#6A6A6A,#6A6A6A,#6A6A6A,absent,absent,absent,absent,right,2,2,left,right,left,right,grey,#6A6A6A,#6A6A6A,absent,num_2,1,1.2198254,13995,1,1,21,f,right,normal,2022_Dec_06_1204,ADD/ADHD_FSM_NoProbe_version1,2021.1.4,99.91337505
practice.xlsx,practice,absent,search,0,0,0,0,0,8,8,19,0,1121.5542,circle,rectangle,pentagon,hexagon,diamond,DR,DM,DL,UR,UL,#6A6A6A,#6A6A6A,#6A6A6A,#6A6A6A,absent,absent,absent,absent,right,2,2,right,left,left,left,grey,#6A6A6A,#6A6A6A,absent,num_2,1,1.1215542,13995,1,1,21,f,right,normal,2022_Dec_06_1204,ADD/ADHD_FSM_NoProbe_version1,2021.1.4,99.91337505
practice.xlsx,practice,absent,search,0,0,0,0,0,9,9,14,0,926.4573001,circle,rectangle,pentagon,hexagon,diamond,DM,DL,UR,DR,UL,#6A6A6A,#6A6A6A,#6A6A6A,#6A6A6A,absent,absent,absent,absent,right,2,2,right,left,right,left,grey,#6A6A6A,#6A6A6A,absent,num_2,1,0.9264573,13995,1,1,21,f,right,normal,2022_Dec_06_1204,ADD/ADHD_FSM_NoProbe_version1,2021.1.4,99.91337505
practice.xlsx,practice,absent,search,0,0,0,0,0,10,10,17,0,1380.9603,circle,rectangle,pentagon,hexagon,diamond,UL,DL,DR,UR,DM,#6A6A6A,#6A6A6A,#6A6A6A,#6A6A6A,absent,absent,absent,absent,left,1,1,right,right,left,left,grey,#6A6A6A,#6A6A6A,absent,num_1,1,1.3809603,13995,1,1,21,f,right,normal,2022_Dec_06_1204,ADD/ADHD_FSM_NoProbe_version1,2021.1.4,99.91337505
practice.xlsx,practice,absent,search,0,0,0,0,0,11,11,11,0,1071.2031,circle,rectangle,pentagon,hexagon,diamond,DR,UR,UL,DM,DL,#6A6A6A,#6A6A6A,#6A6A6A,#6A6A6A,absent,absent,absent,absent,left,1,1,left,right,left,right,grey,#6A6A6A,#6A6A6A,absent,num_1,1,1.0712031,13995,1,1,21,f,right,normal,2022_Dec_06_1204,ADD/ADHD_FSM_NoProbe_version1,2021.1.4,99.91337505
practice.xlsx,practice,absent,search,0,0,0,0,0,12,12,6,0,849.1357,circle,rectangle,pentagon,hexagon,diamond,UR,DM,DR,UL,DL,#6A6A6A,#6A6A6A,#6A6A6A,#6A6A6A,absent,absent,absent,absent,left,1,1,left,right,left,right,grey,#6A6A6A,#6A6A6A,absent,num_1,1,0.8491357,13995,1,1,21,f,right,normal,2022_Dec_06_1204,ADD/ADHD_FSM_NoProbe_version1,2021.1.4,99.91337505
practice.xlsx,practice,absent,search,0,0,0,0,0,13,13,16,0,1744.3863,circle,rectangle,pentagon,hexagon,diamond,UL,DM,UR,DR,DL,#6A6A6A,#6A6A6A,#6A6A6A,#6A6A6A,absent,absent,absent,absent,left,1,1,left,left,right,right,grey,#6A6A6A,#6A6A6A,absent,num_1,1,1.7443863,13995,1,1,21,f,right,normal,2022_Dec_06_1204,ADD/ADHD_FSM_NoProbe_version1,2021.1.4,99.91337505
practice.xlsx,practice,absent,search,0,0,0,0,0,14,14,4,0,790.3339,circle,rectangle,pentagon,hexagon,diamond,DR,UL,DL,UR,DM,#6A6A6A,#6A6A6A,#6A6A6A,#6A6A6A,absent,absent,absent,absent,left,1,1,right,right,right,left,grey,#6A6A6A,#6A6A6A,absent,num_1,1,0.7903339,13995,1,1,21,f,right,normal,2022_Dec_06_1204,ADD/ADHD_FSM_NoProbe_version1,2021.1.4,99.91337505
practice.xlsx,practice,absent,search,0,0,0,0,0,15,15,1,0,603.1124,circle,rectangle,pentagon,hexagon,diamond,DR,DM,UR,UL,DL,#6A6A6A,#6A6A6A,#6A6A6A,#6A6A6A,absent,absent,absent,absent,left,1,1,right,right,left,left,grey,#6A6A6A,#6A6A6A,absent,num_1,1,0.6031124,13995,1,1,21,f,right,normal,2022_Dec_06_1204,ADD/ADHD_FSM_NoProbe_version1,2021.1.4,99.91337505
practice.xlsx,practice,absent,search,0,0,0,0,0,16,16,15,0,1385.5402,circle,rectangle,pentagon,hexagon,diamond,UL,DR,DM,UR,DL,#6A6A6A,#6A6A6A,#6A6A6A,#6A6A6A,absent,absent,absent,absent,left,1,1,right,right,right,left,grey,#6A6A6A,#6A6A6A,absent,num_1,1,1.3855402,13995,1,1,21,f,right,normal,2022_Dec_06_1204,ADD/ADHD_FSM_NoProbe_version1,2021.1.4,99.91337505
practice.xlsx,practice,absent,search,0,0,0,0,0,17,17,0,0,803.956,circle,rectangle,pentagon,hexagon,diamond,DM,DL,UR,DR,UL,#6A6A6A,#6A6A6A,#6A6A6A,#6A6A6A,absent,absent,absent,absent,left,1,1,left,right,right,right,grey,#6A6A6A,#6A6A6A,absent,num_1,1,0.803956,13995,1,1,21,f,right,normal,2022_Dec_06_1204,ADD/ADHD_FSM_NoProbe_version1,2021.1.4,99.91337505
practice.xlsx,practice,absent,search,0,0,0,0,0,18,18,12,0,958.4690999,circle,rectangle,pentagon,hexagon,diamond,UL,DR,DL,UR,DM,#6A6A6A,#6A6A6A,#6A6A6A,#6A6A6A,absent,absent,absent,absent,right,2,2,right,left,left,left,grey,#6A6A6A,#6A6A6A,absent,num_2,1,0.9584691,13995,1,1,21,f,right,normal,2022_Dec_06_1204,ADD/ADHD_FSM_NoProbe_version1,2021.1.4,99.91337505
practice.xlsx,practice,absent,search,0,0,0,0,0,19,19,13,0,718.3532,circle,rectangle,pentagon,hexagon,diamond,UR,DM,UL,DL,DR,#6A6A6A,#6A6A6A,#6A6A6A,#6A6A6A,absent,absent,absent,absent,right,2,2,left,left,left,right,grey,#6A6A6A,#6A6A6A,absent,num_2,1,0.7183532,13995,1,1,21,f,right,normal,2022_Dec_06_1204,ADD/ADHD_FSM_NoProbe_version1,2021.1.4,99.91337505
practice.xlsx,practice,absent,search,0,0,0,0,1,0,20,2,0,1301.6411,circle,rectangle,pentagon,hexagon,diamond,DL,DM,UR,UL,DR,#6A6A6A,#6A6A6A,#6A6A6A,#6A6A6A,absent,absent,absent,absent,right,2,2,right,left,left,left,grey,#6A6A6A,#6A6A6A,absent,num_2,1,1.3016411,13995,1,1,21,f,right,normal,2022_Dec_06_1204,ADD/ADHD_FSM_NoProbe_version1,2021.1.4,99.91337505
practice.xlsx,practice,absent,search,0,0,0,0,1,1,21,14,0,805.8411999,circle,rectangle,pentagon,hexagon,diamond,DM,UR,DR,DL,UL,#6A6A6A,#6A6A6A,#6A6A6A,#6A6A6A,absent,absent,absent,absent,left,1,1,right,left,right,left,grey,#6A6A6A,#6A6A6A,absent,num_1,1,0.8058412,13995,1,1,21,f,right,normal,2022_Dec_06_1204,ADD/ADHD_FSM_NoProbe_version1,2021.1.4,99.91337505
practice.xlsx,practice,absent,search,0,0,0,0,1,2,22,7,0,790.5266,circle,rectangle,pentagon,hexagon,diamond,DR,DM,UR,UL,DL,#6A6A6A,#6A6A6A,#6A6A6A,#6A6A6A,absent,absent,absent,absent,right,2,2,left,right,left,left,grey,#6A6A6A,#6A6A6A,absent,num_2,1,0.7905266,13995,1,1,21,f,right,normal,2022_Dec_06_1204,ADD/ADHD_FSM_NoProbe_version1,2021.1.4,99.91337505
practice.xlsx,practice,absent,search,0,0,0,0,1,3,23,5,0,765.0645,circle,rectangle,pentagon,hexagon,diamond,UR,UL,DL,DR,DM,#6A6A6A,#6A6A6A,#6A6A6A,#6A6A6A,absent,absent,absent,absent,left,1,1,right,right,right,left,grey,#6A6A6A,#6A6A6A,absent,num_1,1,0.7650645,13995,1,1,21,f,right,normal,2022_Dec_06_1204,ADD/ADHD_FSM_NoProbe_version1,2021.1.4,99.91337505
practice.xlsx,practice,absent,search,0,0,0,0,1,4,24,13,1,809.1492,circle,rectangle,pentagon,hexagon,diamond,UL,UR,DR,DM,DL,#6A6A6A,#6A6A6A,#6A6A6A,#6A6A6A,absent,absent,absent,absent,left,1,1,right,left,right,left,grey,#6A6A6A,#6A6A6A,absent,num_1,1,0.8091492,13995,1,1,21,f,right,normal,2022_Dec_06_1204,ADD/ADHD_FSM_NoProbe_version1,2021.1.4,99.91337505
trials.xlsx,main,absent,search,0,1,1,1,0,0,0,5,1,718.1314999,circle,rectangle,pentagon,hexagon,diamond,DM,UR,UL,DL,DR,#6A6A6A,#6A6A6A,#6A6A6A,#6A6A6A,absent,absent,absent,absent,right,2,2,left,right,left,right,grey,#6A6A6A,#6A6A6A,absent,num_2,1,0.7181315,13995,1,1,21,f,right,normal,2022_Dec_06_1204,ADD/ADHD_FSM_NoProbe_version1,2021.1.4,99.91337505
trials.xlsx,main,absent,search,0,1,1,1,0,1,1,6,1,733.4592999,circle,rectangle,pentagon,hexagon,diamond,DL,UR,DR,DM,UL,#6A6A6A,#6A6A6A,#6A6A6A,#6A6A6A,absent,absent,absent,absent,left,1,1,left,right,right,right,grey,#6A6A6A,#6A6A6A,absent,num_1,1,0.7334593,13995,1,1,21,f,right,normal,2022_Dec_06_1204,ADD/ADHD_FSM_NoProbe_version1,2021.1.4,99.91337505
trials.xlsx,main,absent,search,0,1,1,1,0,2,2,7,1,1301.8707,circle,rectangle,pentagon,hexagon,diamond,DL,DM,DR,UL,UR,#6A6A6A,#6A6A6A,#6A6A6A,#6A6A6A,absent,absent,absent,absent,right,2,2,right,left,left,left,grey,#6A6A6A,#6A6A6A,absent,num_2,1,1.3018707,13995,1,1,21,f,right,normal,2022_Dec_06_1204,ADD/ADHD_FSM_NoProbe_version1,2021.1.4,99.91337505
trials.xlsx,main,present,search,0,1,1,1,0,3,3,2,1,1530.1445,circle,rectangle,pentagon,hexagon,diamond,UL,DM,UR,DR,DL,#6A6A6A,#6A6A6A,#6A6A6A,#DD3500,present,DL,right,dist4,right,2,2,left,left,left,right,grey,#6A6A6A,#DD3500,red,num_2,1,1.5301445,13995,1,1,21,f,right,normal,2022_Dec_06_1204,ADD/ADHD_FSM_NoProbe_version1,2021.1.4,99.91337505
trials.xlsx,main,absent,search,0,1,1,1,0,4,4,4,1,1047.9675,circle,rectangle,pentagon,hexagon,diamond,UR,DR,UL,DL,DM,#6A6A6A,#6A6A6A,#6A6A6A,#6A6A6A,absent,absent,absent,absent,right,2,2,left,right,right,left,grey,#6A6A6A,#6A6A6A,absent,num_2,1,1.0479675,13995,1,1,21,f,right,normal,2022_Dec_06_1204,ADD/ADHD_FSM_NoProbe_version1,2021.1.4,99.91337505
trials.xlsx,main,present,search,0,1,1,1,0,5,5,3,1,1172.5253,circle,rectangle,pentagon,hexagon,diamond,UL,DM,UR,DL,DR,#6A6A6A,#DD3500,#6A6A6A,#6A6A6A,present,UR,left,dist2,right,2,2,right,left,left,right,grey,#6A6A6A,#DD3500,red,num_2,1,1.1725253,13995,1,1,21,f,right,normal,2022_Dec_06_1204,ADD/ADHD_FSM_NoProbe_version1,2021.1.4,99.91337505
trials.xlsx,main,present,search,0,1,1,1,0,6,6,0,1,694.7433,circle,rectangle,pentagon,hexagon,diamond,UL,DM,DR,UR,DL,#DD3500,#6A6A6A,#6A6A6A,#6A6A6A,present,DM,right,dist1,left,1,1,right,right,left,left,grey,#6A6A6A,#DD3500,red,num_1,1,0.6947433,13995,1,1,21,f,right,normal,2022_Dec_06_1204,ADD/ADHD_FSM_NoProbe_version1,2021.1.4,99.91337505
trials.xlsx,main,present,search,0,1,1,1,0,7,7,1,1,931.9098999,circle,rectangle,pentagon,hexagon,diamond,DR,UL,UR,DM,DL,#6A6A6A,#6A6A6A,#DD3500,#6A6A6A,present,DM,right,dist3,left,1,1,right,right,right,left,grey,#6A6A6A,#DD3500,red,num_1,1,0.9319099,13995,1,1,21,f,right,normal,2022_Dec_06_1204,ADD/ADHD_FSM_NoProbe_version1,2021.1.4,99.91337505
trials.xlsx,main,absent,search,0,1,1,1,1,0,8,7,1,958.3453999,circle,rectangle,pentagon,hexagon,diamond,DL,UR,DM,DR,UL,#6A6A6A,#6A6A6A,#6A6A6A,#6A6A6A,absent,absent,absent,absent,left,1,1,right,right,left,left,grey,#6A6A6A,#6A6A6A,absent,num_1,1,0.9583454,13995,1,1,21,f,right,normal,2022_Dec_06_1204,ADD/ADHD_FSM_NoProbe_version1,2021.1.4,99.91337505
trials.xlsx,main,present,search,0,1,1,1,1,1,9,2,1,838.8474,circle,rectangle,pentagon,hexagon,diamond,DM,UL,DR,DL,UR,#6A6A6A,#6A6A6A,#DD3500,#6A6A6A,present,DL,left,dist3,right,2,2,left,right,left,left,grey,#6A6A6A,#DD3500,red,num_2,1,0.8388474,13995,1,1,21,f,right,normal,2022_Dec_06_1204,ADD/ADHD_FSM_NoProbe_version1,2021.1.4,99.91337505
trials.xlsx,main,absent,search,0,1,1,1,1,2,10,5,1,653.5461,circle,rectangle,pentagon,hexagon,diamond,DL,DM,DR,UL,UR,#6A6A6A,#6A6A6A,#6A6A6A,#6A6A6A,absent,absent,absent,absent,left,1,1,left,right,right,right,grey,#6A6A6A,#6A6A6A,absent,num_1,1,0.6535461,13995,1,1,21,f,right,normal,2022_Dec_06_1204,ADD/ADHD_FSM_NoProbe_version1,2021.1.4,99.91337505
trials.xlsx,main,present,search,0,1,1,1,1,3,11,1,1,872.1835,circle,rectangle,pentagon,hexagon,diamond,DR,UL,DM,UR,DL,#DD3500,#6A6A6A,#6A6A6A,#6A6A6A,present,UL,left,dist1,left,1,1,left,right,right,left,grey,#6A6A6A,#DD3500,red,num_1,1,0.8721835,13995,1,1,21,f,right,normal,2022_Dec_06_1204,ADD/ADHD_FSM_NoProbe_version1,2021.1.4,99.91337505
trials.xlsx,main,absent,search,0,1,1,1,1,4,12,4,1,980.9272001,circle,rectangle,pentagon,hexagon,diamond,UL,DM,DR,UR,DL,#6A6A6A,#6A6A6A,#6A6A6A,#6A6A6A,absent,absent,absent,absent,left,1,1,right,left,left,right,grey,#6A6A6A,#6A6A6A,absent,num_1,1,0.9809272,13995,1,1,21,f,right,normal,2022_Dec_06_1204,ADD/ADHD_FSM_NoProbe_version1,2021.1.4,99.91337505
trials.xlsx,main,absent,search,0,1,1,1,1,5,13,6,1,844.7763,circle,rectangle,pentagon,hexagon,diamond,DL,DM,UR,UL,DR,#6A6A6A,#6A6A6A,#6A6A6A,#6A6A6A,absent,absent,absent,absent,right,2,2,right,right,left,left,grey,#6A6A6A,#6A6A6A,absent,num_2,1,0.8447763,13995,1,1,21,f,right,normal,2022_Dec_06_1204,ADD/ADHD_FSM_NoProbe_version1,2021.1.4,99.91337505
trials.xlsx,main,present,search,0,1,1,1,1,6,14,3,1,867.2523999,circle,rectangle,pentagon,hexagon,diamond,DR,DL,UR,UL,DM,#6A6A6A,#6A6A6A,#DD3500,#6A6A6A,present,UL,left,dist3,right,2,2,right,left,left,left,grey,#6A6A6A,#DD3500,red,num_2,1,0.8672524,13995,1,1,21,f,right,normal,2022_Dec_06_1204,ADD/ADHD_FSM_NoProbe_version1,2021.1.4,99.91337505
trials.xlsx,main,present,search,0,1,1,1,1,7,15,0,1,871.7782,circle,rectangle,pentagon,hexagon,diamond,DL,DR,UL,DM,UR,#6A6A6A,#6A6A6A,#6A6A6A,#DD3500,present,UR,left,dist4,right,2,2,left,left,right,left,grey,#6A6A6A,#DD3500,red,num_2,1,0.8717782,13995,1,1,21,f,right,normal,2022_Dec_06_1204,ADD/ADHD_FSM_NoProbe_version1,2021.1.4,99.91337505
trials.xlsx,main,present,search,0,1,1,1,2,0,16,2,1,780.7606,circle,rectangle,pentagon,hexagon,diamond,DR,DM,UR,UL,DL,#6A6A6A,#6A6A6A,#DD3500,#6A6A6A,present,UL,right,dist3,right,2,2,left,right,right,left,grey,#6A6A6A,#DD3500,red,num_2,1,0.7807606,13995,1,1,21,f,right,normal,2022_Dec_06_1204,ADD/ADHD_FSM_NoProbe_version1,2021.1.4,99.91337505
trials.xlsx,main,present,search,0,1,1,1,2,1,17,1,1,777.5031,circle,rectangle,pentagon,hexagon,diamond,UL,DM,DR,DL,UR,#DD3500,#6A6A6A,#6A6A6A,#6A6A6A,present,DM,left,dist1,right,2,2,left,left,right,right,grey,#6A6A6A,#DD3500,red,num_2,1,0.7775031,13995,1,1,21,f,right,normal,2022_Dec_06_1204,ADD/ADHD_FSM_NoProbe_version1,2021.1.4,99.91337505
trials.xlsx,main,present,search,0,1,1,1,2,2,18,0,1,740.1052001,circle,rectangle,pentagon,hexagon,diamond,DR,DL,DM,UR,UL,#6A6A6A,#6A6A6A,#6A6A6A,#DD3500,present,UL,right,dist4,right,2,2,left,left,left,right,grey,#6A6A6A,#DD3500,red,num_2,1,0.7401052,13995,1,1,21,f,right,normal,2022_Dec_06_1204,ADD/ADHD_FSM_NoProbe_version1,2021.1.4,99.91337505
trials.xlsx,main,absent,search,0,1,1,1,2,3,19,5,1,552.8967,circle,rectangle,pentagon,hexagon,diamond,DR,UR,DM,UL,DL,#6A6A6A,#6A6A6A,#6A6A6A,#6A6A6A,absent,absent,absent,absent,right,2,2,left,right,right,left,grey,#6A6A6A,#6A6A6A,absent,num_2,1,0.5528967,13995,1,1,21,f,right,normal,2022_Dec_06_1204,ADD/ADHD_FSM_NoProbe_version1,2021.1.4,99.91337505
trials.xlsx,main,absent,search,0,1,1,1,2,4,20,7,1,939.4504001,circle,rectangle,pentagon,hexagon,diamond,DM,DR,UL,UR,DL,#6A6A6A,#6A6A6A,#6A6A6A,#6A6A6A,absent,absent,absent,absent,right,2,2,left,right,right,left,grey,#6A6A6A,#6A6A6A,absent,num_2,1,0.9394504,13995,1,1,21,f,right,normal,2022_Dec_06_1204,ADD/ADHD_FSM_NoProbe_version1,2021.1.4,99.91337505
trials.xlsx,main,absent,search,0,1,1,1,2,5,21,4,1,619.5433,circle,rectangle,pentagon,hexagon,diamond,DL,DM,UR,UL,DR,#6A6A6A,#6A6A6A,#6A6A6A,#6A6A6A,absent,absent,absent,absent,left,1,1,right,left,right,right,grey,#6A6A6A,#6A6A6A,absent,num_1,1,0.6195433,13995,1,1,21,f,right,normal,2022_Dec_06_1204,ADD/ADHD_FSM_NoProbe_version1,2021.1.4,99.91337505
trials.xlsx,main,absent,search,0,1,1,1,2,6,22,6,1,694.2734,circle,rectangle,pentagon,hexagon,diamond,DL,DR,DM,UR,UL,#6A6A6A,#6A6A6A,#6A6A6A,#6A6A6A,absent,absent,absent,absent,left,1,1,right,right,right,left,grey,#6A6A6A,#6A6A6A,absent,num_1,1,0.6942734,13995,1,1,21,f,right,normal,2022_Dec_06_1204,ADD/ADHD_FSM_NoProbe_version1,2021.1.4,99.91337505
trials.xlsx,main,present,search,0,1,1,1,2,7,23,3,1,844.8458001,circle,rectangle,pentagon,hexagon,diamond,DL,DM,UR,DR,UL,#6A6A6A,#6A6A6A,#6A6A6A,#DD3500,present,UL,left,dist4,right,2,2,left,right,left,left,grey,#6A6A6A,#DD3500,red,num_2,1,0.8448458,13995,1,1,21,f,right,normal,2022_Dec_06_1204,ADD/ADHD_FSM_NoProbe_version1,2021.1.4,99.91337505
trials.xlsx,main,absent,search,0,1,1,1,3,0,24,6,1,1085.4263,circle,rectangle,pentagon,hexagon,diamond,UR,DL,DM,UL,DR,#6A6A6A,#6A6A6A,#6A6A6A,#6A6A6A,absent,absent,absent,absent,left,1,1,right,left,right,left,grey,#6A6A6A,#6A6A6A,absent,num_1,1,1.0854263,13995,1,1,21,f,right,normal,2022_Dec_06_1204,ADD/ADHD_FSM_NoProbe_version1,2021.1.4,99.91337505
trials.xlsx,main,absent,search,0,1,1,1,3,1,25,4,1,852.4057,circle,rectangle,pentagon,hexagon,diamond,DL,DR,DM,UR,UL,#6A6A6A,#6A6A6A,#6A6A6A,#6A6A6A,absent,absent,absent,absent,left,1,1,right,right,left,left,grey,#6A6A6A,#6A6A6A,absent,num_1,1,0.8524057,13995,1,1,21,f,right,normal,2022_Dec_06_1204,ADD/ADHD_FSM_NoProbe_version1,2021.1.4,99.91337505
trials.xlsx,main,present,search,0,1,1,1,3,2,26,2,1,894.64,circle,rectangle,pentagon,hexagon,diamond,DM,DL,UR,DR,UL,#6A6A6A,#6A6A6A,#6A6A6A,#DD3500,present,UL,right,dist4,left,1,1,right,right,left,right,grey,#6A6A6A,#DD3500,red,num_1,1,0.89464,13995,1,1,21,f,right,normal,2022_Dec_06_1204,ADD/ADHD_FSM_NoProbe_version1,2021.1.4,99.91337505
trials.xlsx,main,present,search,0,1,1,1,3,3,27,3,1,864.9457999,circle,rectangle,pentagon,hexagon,diamond,UL,DM,DL,UR,DR,#DD3500,#6A6A6A,#6A6A6A,#6A6A6A,present,DM,right,dist1,left,1,1,right,right,left,left,grey,#6A6A6A,#DD3500,red,num_1,1,0.8649458,13995,1,1,21,f,right,normal,2022_Dec_06_1204,ADD/ADHD_FSM_NoProbe_version1,2021.1.4,99.91337505
trials.xlsx,main,absent,search,0,1,1,1,3,4,28,7,1,654.0514,circle,rectangle,pentagon,hexagon,diamond,UR,DM,DR,DL,UL,#6A6A6A,#6A6A6A,#6A6A6A,#6A6A6A,absent,absent,absent,absent,right,2,2,left,right,left,left,grey,#6A6A6A,#6A6A6A,absent,num_2,1,0.6540514,13995,1,1,21,f,right,normal,2022_Dec_06_1204,ADD/ADHD_FSM_NoProbe_version1,2021.1.4,99.91337505
trials.xlsx,main,present,search,0,1,1,1,3,5,29,1,1,1134.6952,circle,rectangle,pentagon,hexagon,diamond,DL,DM,DR,UL,UR,#6A6A6A,#DD3500,#6A6A6A,#6A6A6A,present,DR,left,dist2,right,2,2,right,left,right,left,grey,#6A6A6A,#DD3500,red,num_2,1,1.1346952,13995,1,1,21,f,right,normal,2022_Dec_06_1204,ADD/ADHD_FSM_NoProbe_version1,2021.1.4,99.91337505
trials.xlsx,main,present,search,0,1,1,1,3,6,30,0,1,796.5899,circle,rectangle,pentagon,hexagon,diamond,UR,DL,DR,UL,DM,#DD3500,#6A6A6A,#6A6A6A,#6A6A6A,present,DL,right,dist1,left,1,1,right,right,right,left,grey,#6A6A6A,#DD3500,red,num_1,1,0.7965899,13995,1,1,21,f,right,normal,2022_Dec_06_1204,ADD/ADHD_FSM_NoProbe_version1,2021.1.4,99.91337505
trials.xlsx,main,absent,search,0,1,1,1,3,7,31,5,1,933.7186,circle,rectangle,pentagon,hexagon,diamond,DM,DL,UR,DR,UL,#6A6A6A,#6A6A6A,#6A6A6A,#6A6A6A,absent,absent,absent,absent,left,1,1,right,left,right,left,grey,#6A6A6A,#6A6A6A,absent,num_1,1,0.9337186,13995,1,1,21,f,right,normal,2022_Dec_06_1204,ADD/ADHD_FSM_NoProbe_version1,2021.1.4,99.91337505
trials.xlsx,main,absent,search,0,1,1,1,4,0,32,6,1,680.325,circle,rectangle,pentagon,hexagon,diamond,DM,UR,UL,DL,DR,#6A6A6A,#6A6A6A,#6A6A6A,#6A6A6A,absent,absent,absent,absent,left,1,1,left,right,right,left,grey,#6A6A6A,#6A6A6A,absent,num_1,1,0.680325,13995,1,1,21,f,right,normal,2022_Dec_06_1204,ADD/ADHD_FSM_NoProbe_version1,2021.1.4,99.91337505
trials.xlsx,main,present,search,0,1,1,1,4,1,33,2,1,924.9321,circle,rectangle,pentagon,hexagon,diamond,UL,DL,UR,DR,DM,#DD3500,#6A6A6A,#6A6A6A,#6A6A6A,present,DL,right,dist1,left,1,1,right,left,right,right,grey,#6A6A6A,#DD3500,red,num_1,1,0.9249321,13995,1,1,21,f,right,normal,2022_Dec_06_1204,ADD/ADHD_FSM_NoProbe_version1,2021.1.4,99.91337505
trials.xlsx,main,present,search,0,1,1,1,4,2,34,0,1,575.4884001,circle,rectangle,pentagon,hexagon,diamond,UL,DR,DM,DL,UR,#DD3500,#6A6A6A,#6A6A6A,#6A6A6A,present,DR,left,dist1,left,1,1,left,left,right,right,grey,#6A6A6A,#DD3500,red,num_1,1,0.5754884,13995,1,1,21,f,right,normal,2022_Dec_06_1204,ADD/ADHD_FSM_NoProbe_version1,2021.1.4,99.91337505
trials.xlsx,main,absent,search,0,1,1,1,4,3,35,5,1,756.4217,circle,rectangle,pentagon,hexagon,diamond,DM,UL,DR,DL,UR,#6A6A6A,#6A6A6A,#6A6A6A,#6A6A6A,absent,absent,absent,absent,right,2,2,left,left,left,right,grey,#6A6A6A,#6A6A6A,absent,num_2,1,0.7564217,13995,1,1,21,f,right,normal,2022_Dec_06_1204,ADD/ADHD_FSM_NoProbe_version1,2021.1.4,99.91337505
trials.xlsx,main,present,search,0,1,1,1,4,4,36,1,1,502.3803001,circle,rectangle,pentagon,hexagon,diamond,DM,UR,DR,UL,DL,#6A6A6A,#6A6A6A,#DD3500,#6A6A6A,present,UL,left,dist3,right,2,2,left,right,left,left,grey,#6A6A6A,#DD3500,red,num_2,1,0.5023803,13995,1,1,21,f,right,normal,2022_Dec_06_1204,ADD/ADHD_FSM_NoProbe_version1,2021.1.4,99.91337505
trials.xlsx,main,present,search,0,1,1,1,4,5,37,3,1,737.1193001,circle,rectangle,pentagon,hexagon,diamond,DL,DM,DR,UL,UR,#6A6A6A,#DD3500,#6A6A6A,#6A6A6A,present,DR,left,dist2,right,2,2,right,left,left,right,grey,#6A6A6A,#DD3500,red,num_2,1,0.7371193,13995,1,1,21,f,right,normal,2022_Dec_06_1204,ADD/ADHD_FSM_NoProbe_version1,2021.1.4,99.91337505
trials.xlsx,main,absent,search,0,1,1,1,4,6,38,7,1,564.2556001,circle,rectangle,pentagon,hexagon,diamond,DL,UL,DM,UR,DR,#6A6A6A,#6A6A6A,#6A6A6A,#6A6A6A,absent,absent,absent,absent,right,2,2,right,left,left,right,grey,#6A6A6A,#6A6A6A,absent,num_2,1,0.5642556,13995,1,1,21,f,right,normal,2022_Dec_06_1204,ADD/ADHD_FSM_NoProbe_version1,2021.1.4,99.91337505
trials.xlsx,main,absent,search,0,1,1,1,4,7,39,4,1,667.1173,circle,rectangle,pentagon,hexagon,diamond,DM,UL,DR,DL,UR,#6A6A6A,#6A6A6A,#6A6A6A,#6A6A6A,absent,absent,absent,absent,left,1,1,left,right,right,right,grey,#6A6A6A,#6A6A6A,absent,num_1,1,0.6671173,13995,1,1,21,f,right,normal,2022_Dec_06_1204,ADD/ADHD_FSM_NoProbe_version1,2021.1.4,99.91337505
trials.xlsx,main,absent,search,0,1,1,1,5,0,40,6,1,937.3166,circle,rectangle,pentagon,hexagon,diamond,DL,UR,UL,DM,DR,#6A6A6A,#6A6A6A,#6A6A6A,#6A6A6A,absent,absent,absent,absent,left,1,1,left,right,left,right,grey,#6A6A6A,#6A6A6A,absent,num_1,1,0.9373166,13995,1,1,21,f,right,normal,2022_Dec_06_1204,ADD/ADHD_FSM_NoProbe_version1,2021.1.4,99.91337505
trials.xlsx,main,present,search,0,1,1,1,5,1,41,3,1,725.8403,circle,rectangle,pentagon,hexagon,diamond,DR,UR,UL,DM,DL,#6A6A6A,#6A6A6A,#DD3500,#6A6A6A,present,DM,left,dist3,left,1,1,right,right,left,left,grey,#6A6A6A,#DD3500,red,num_1,1,0.7258403,13995,1,1,21,f,right,normal,2022_Dec_06_1204,ADD/ADHD_FSM_NoProbe_version1,2021.1.4,99.91337505
trials.xlsx,main,absent,search,0,1,1,1,5,2,42,7,1,794.8920999,circle,rectangle,pentagon,hexagon,diamond,DR,DL,UL,UR,DM,#6A6A6A,#6A6A6A,#6A6A6A,#6A6A6A,absent,absent,absent,absent,left,1,1,right,left,left,right,grey,#6A6A6A,#6A6A6A,absent,num_1,1,0.7948921,13995,1,1,21,f,right,normal,2022_Dec_06_1204,ADD/ADHD_FSM_NoProbe_version1,2021.1.4,99.91337505
trials.xlsx,main,absent,search,0,1,1,1,5,3,43,5,1,777.6426999,circle,rectangle,pentagon,hexagon,diamond,DL,UL,DM,DR,UR,#6A6A6A,#6A6A6A,#6A6A6A,#6A6A6A,absent,absent,absent,absent,left,1,1,right,left,right,right,grey,#6A6A6A,#6A6A6A,absent,num_1,1,0.7776427,13995,1,1,21,f,right,normal,2022_Dec_06_1204,ADD/ADHD_FSM_NoProbe_version1,2021.1.4,99.91337505
trials.xlsx,main,present,search,0,1,1,1,5,4,44,1,1,782.2095,circle,rectangle,pentagon,hexagon,diamond,UL,DL,DR,UR,DM,#6A6A6A,#6A6A6A,#6A6A6A,#DD3500,present,DM,left,dist4,left,1,1,right,right,left,left,grey,#6A6A6A,#DD3500,red,num_1,1,0.7822095,13995,1,1,21,f,right,normal,2022_Dec_06_1204,ADD/ADHD_FSM_NoProbe_version1,2021.1.4,99.91337505
trials.xlsx,main,absent,search,0,1,1,1,5,5,45,4,1,684.7412999,circle,rectangle,pentagon,hexagon,diamond,UR,DM,DL,UL,DR,#6A6A6A,#6A6A6A,#6A6A6A,#6A6A6A,absent,absent,absent,absent,left,1,1,right,left,right,left,grey,#6A6A6A,#6A6A6A,absent,num_1,1,0.6847413,13995,1,1,21,f,right,normal,2022_Dec_06_1204,ADD/ADHD_FSM_NoProbe_version1,2021.1.4,99.91337505
trials.xlsx,main,present,search,0,1,1,1,5,6,46,2,1,611.4794,circle,rectangle,pentagon,hexagon,diamond,UL,UR,DR,DM,DL,#6A6A6A,#6A6A6A,#6A6A6A,#DD3500,present,DL,left,dist4,left,1,1,right,right,right,left,grey,#6A6A6A,#DD3500,red,num_1,1,0.6114794,13995,1,1,21,f,right,normal,2022_Dec_06_1204,ADD/ADHD_FSM_NoProbe_version1,2021.1.4,99.91337505
trials.xlsx,main,present,search,0,1,1,1,5,7,47,0,2,695.6798,circle,rectangle,pentagon,hexagon,diamond,DL,UR,DM,DR,UL,#6A6A6A,#6A6A6A,#DD3500,#6A6A6A,present,DR,left,dist3,right,2,2,left,right,left,right,grey,#6A6A6A,#DD3500,red,num_2,1,0.6956798,13995,1,1,21,f,right,normal,2022_Dec_06_1204,ADD/ADHD_FSM_NoProbe_version1,2021.1.4,99.91337505
trials.xlsx,main,present,search,0,1,1,1,6,0,48,0,2,917.2222,circle,rectangle,pentagon,hexagon,diamond,DR,DL,UL,DM,UR,#6A6A6A,#6A6A6A,#7546FF,#6A6A6A,present,DM,left,dist3,right,2,2,left,left,left,right,grey,#6A6A6A,#7546FF,purple,num_2,1,0.9172222,13995,1,1,21,f,right,normal,2022_Dec_06_1204,ADD/ADHD_FSM_NoProbe_version1,2021.1.4,99.91337505
trials.xlsx,main,present,search,0,1,1,1,6,1,49,2,2,611.7802999,circle,rectangle,pentagon,hexagon,diamond,DR,UR,DL,DM,UL,#6A6A6A,#7546FF,#6A6A6A,#6A6A6A,present,DL,right,dist2,right,2,2,right,right,left,left,grey,#6A6A6A,#7546FF,purple,num_2,1,0.6117803,13995,1,1,21,f,right,normal,2022_Dec_06_1204,ADD/ADHD_FSM_NoProbe_version1,2021.1.4,99.91337505
trials.xlsx,main,absent,search,0,1,1,1,6,2,50,4,2,626.4723,circle,rectangle,pentagon,hexagon,diamond,UR,DL,DR,UL,DM,#6A6A6A,#6A6A6A,#6A6A6A,#6A6A6A,absent,absent,absent,absent,right,2,2,left,left,right,right,grey,#6A6A6A,#6A6A6A,absent,num_2,1,0.6264723,13995,1,1,21,f,right,normal,2022_Dec_06_1204,ADD/ADHD_FSM_NoProbe_version1,2021.1.4,99.91337505
trials.xlsx,main,absent,search,0,1,1,1,6,3,51,6,2,723.1327,circle,rectangle,pentagon,hexagon,diamond,UL,UR,DR,DL,DM,#6A6A6A,#6A6A6A,#6A6A6A,#6A6A6A,absent,absent,absent,absent,right,2,2,right,left,left,right,grey,#6A6A6A,#6A6A6A,absent,num_2,1,0.7231327,13995,1,1,21,f,right,normal,2022_Dec_06_1204,ADD/ADHD_FSM_NoProbe_version1,2021.1.4,99.91337505
trials.xlsx,main,present,search,0,1,1,1,6,4,52,3,2,746.0202001,circle,rectangle,pentagon,hexagon,diamond,DR,DM,DL,UR,UL,#6A6A6A,#6A6A6A,#7546FF,#6A6A6A,present,UR,right,dist3,left,1,1,right,right,right,left,grey,#6A6A6A,#7546FF,purple,num_1,1,0.7460202,13995,1,1,21,f,right,normal,2022_Dec_06_1204,ADD/ADHD_FSM_NoProbe_version1,2021.1.4,99.91337505
trials.xlsx,main,absent,search,0,1,1,1,6,5,53,5,2,592.5534,circle,rectangle,pentagon,hexagon,diamond,UL,UR,DR,DL,DM,#6A6A6A,#6A6A6A,#6A6A6A,#6A6A6A,absent,absent,absent,absent,right,2,2,right,left,left,left,grey,#6A6A6A,#6A6A6A,absent,num_2,1,0.5925534,13995,1,1,21,f,right,normal,2022_Dec_06_1204,ADD/ADHD_FSM_NoProbe_version1,2021.1.4,99.91337505
trials.xlsx,main,present,search,0,1,1,1,6,6,54,1,2,804.7244,circle,rectangle,pentagon,hexagon,diamond,DL,DR,UL,UR,DM,#6A6A6A,#6A6A6A,#7546FF,#6A6A6A,present,UR,left,dist3,right,2,2,right,right,left,left,grey,#6A6A6A,#7546FF,purple,num_2,1,0.8047244,13995,1,1,21,f,right,normal,2022_Dec_06_1204,ADD/ADHD_FSM_NoProbe_version1,2021.1.4,99.91337505
trials.xlsx,main,absent,search,0,1,1,1,6,7,55,7,2,779.7447001,circle,rectangle,pentagon,hexagon,diamond,DR,DL,UR,UL,DM,#6A6A6A,#6A6A6A,#6A6A6A,#6A6A6A,absent,absent,absent,absent,left,1,1,right,left,left,right,grey,#6A6A6A,#6A6A6A,absent,num_1,1,0.7797447,13995,1,1,21,f,right,normal,2022_Dec_06_1204,ADD/ADHD_FSM_NoProbe_version1,2021.1.4,99.91337505
trials.xlsx,main,absent,search,0,1,1,1,7,0,56,4,2,614.4738999,circle,rectangle,pentagon,hexagon,diamond,DL,UL,DM,UR,DR,#6A6A6A,#6A6A6A,#6A6A6A,#6A6A6A,absent,absent,absent,absent,left,1,1,right,right,left,left,grey,#6A6A6A,#6A6A6A,absent,num_1,1,0.6144739,13995,1,1,21,f,right,normal,2022_Dec_06_1204,ADD/ADHD_FSM_NoProbe_version1,2021.1.4,99.91337505
trials.xlsx,main,absent,search,0,1,1,1,7,1,57,7,2,647.1648001,circle,rectangle,pentagon,hexagon,diamond,DM,DR,DL,UR,UL,#6A6A6A,#6A6A6A,#6A6A6A,#6A6A6A,absent,absent,absent,absent,left,1,1,right,left,right,right,grey,#6A6A6A,#6A6A6A,absent,num_1,1,0.6471648,13995,1,1,21,f,right,normal,2022_Dec_06_1204,ADD/ADHD_FSM_NoProbe_version1,2021.1.4,99.91337505
trials.xlsx,main,absent,search,0,1,1,1,7,2,58,6,2,449.9830001,circle,rectangle,pentagon,hexagon,diamond,DM,UR,UL,DR,DL,#6A6A6A,#6A6A6A,#6A6A6A,#6A6A6A,absent,absent,absent,absent,left,1,1,left,right,right,left,grey,#6A6A6A,#6A6A6A,absent,num_1,1,0.449983,13995,1,1,21,f,right,normal,2022_Dec_06_1204,ADD/ADHD_FSM_NoProbe_version1,2021.1.4,99.91337505
trials.xlsx,main,present,search,0,1,1,1,7,3,59,0,2,602.6388,circle,rectangle,pentagon,hexagon,diamond,DM,DR,UR,DL,UL,#6A6A6A,#6A6A6A,#6A6A6A,#7546FF,present,UL,right,dist4,right,2,2,right,left,left,right,grey,#6A6A6A,#7546FF,purple,num_2,1,0.6026388,13995,1,1,21,f,right,normal,2022_Dec_06_1204,ADD/ADHD_FSM_NoProbe_version1,2021.1.4,99.91337505
trials.xlsx,main,present,search,0,1,1,1,7,4,60,2,2,893.4704,circle,rectangle,pentagon,hexagon,diamond,UL,DL,DR,UR,DM,#6A6A6A,#6A6A6A,#7546FF,#6A6A6A,present,UR,left,dist3,right,2,2,left,right,left,left,grey,#6A6A6A,#7546FF,purple,num_2,1,0.8934704,13995,1,1,21,f,right,normal,2022_Dec_06_1204,ADD/ADHD_FSM_NoProbe_version1,2021.1.4,99.91337505
trials.xlsx,main,present,search,0,1,1,1,7,5,61,3,2,824.072,circle,rectangle,pentagon,hexagon,diamond,UL,DM,DR,UR,DL,#7546FF,#6A6A6A,#6A6A6A,#6A6A6A,present,DM,right,dist1,left,1,1,right,right,right,left,grey,#6A6A6A,#7546FF,purple,num_1,1,0.824072,13995,1,1,21,f,right,normal,2022_Dec_06_1204,ADD/ADHD_FSM_NoProbe_version1,2021.1.4,99.91337505
trials.xlsx,main,absent,search,0,1,1,1,7,6,62,5,2,634.5889,circle,rectangle,pentagon,hexagon,diamond,UR,DM,UL,DR,DL,#6A6A6A,#6A6A6A,#6A6A6A,#6A6A6A,absent,absent,absent,absent,right,2,2,left,left,left,right,grey,#6A6A6A,#6A6A6A,absent,num_2,1,0.6345889,13995,1,1,21,f,right,normal,2022_Dec_06_1204,ADD/ADHD_FSM_NoProbe_version1,2021.1.4,99.91337505
trials.xlsx,main,present,search,0,1,1,1,7,7,63,1,2,751.3129001,circle,rectangle,pentagon,hexagon,diamond,DR,DL,UL,UR,DM,#6A6A6A,#7546FF,#6A6A6A,#6A6A6A,present,UL,left,dist2,right,2,2,right,left,left,left,grey,#6A6A6A,#7546FF,purple,num_2,1,0.7513129,13995,1,1,21,f,right,normal,2022_Dec_06_1204,ADD/ADHD_FSM_NoProbe_version1,2021.1.4,99.91337505
trials.xlsx,main,present,search,0,1,1,1,8,0,64,2,2,605.3993,circle,rectangle,pentagon,hexagon,diamond,UL,DL,DM,UR,DR,#7546FF,#6A6A6A,#6A6A6A,#6A6A6A,present,DL,left,dist1,right,2,2,left,right,right,left,grey,#6A6A6A,#7546FF,purple,num_2,1,0.6053993,13995,1,1,21,f,right,normal,2022_Dec_06_1204,ADD/ADHD_FSM_NoProbe_version1,2021.1.4,99.91337505
trials.xlsx,main,absent,search,0,1,1,1,8,1,65,5,2,544.1777001,circle,rectangle,pentagon,hexagon,diamond,DM,DL,UR,DR,UL,#6A6A6A,#6A6A6A,#6A6A6A,#6A6A6A,absent,absent,absent,absent,right,2,2,left,left,right,left,grey,#6A6A6A,#6A6A6A,absent,num_2,1,0.5441777,13995,1,1,21,f,right,normal,2022_Dec_06_1204,ADD/ADHD_FSM_NoProbe_version1,2021.1.4,99.91337505
trials.xlsx,main,present,search,0,1,1,1,8,2,66,0,2,635.3416,circle,rectangle,pentagon,hexagon,diamond,UR,UL,DL,DM,DR,#6A6A6A,#7546FF,#6A6A6A,#6A6A6A,present,DL,left,dist2,right,2,2,right,left,right,left,grey,#6A6A6A,#7546FF,purple,num_2,1,0.6353416,13995,1,1,21,f,right,normal,2022_Dec_06_1204,ADD/ADHD_FSM_NoProbe_version1,2021.1.4,99.91337505
trials.xlsx,main,absent,search,0,1,1,1,8,3,67,6,2,634.1172999,circle,rectangle,pentagon,hexagon,diamond,DR,DM,UR,UL,DL,#6A6A6A,#6A6A6A,#6A6A6A,#6A6A6A,absent,absent,absent,absent,right,2,2,right,left,left,left,grey,#6A6A6A,#6A6A6A,absent,num_2,1,0.6341173,13995,1,1,21,f,right,normal,2022_Dec_06_1204,ADD/ADHD_FSM_NoProbe_version1,2021.1.4,99.91337505
trials.xlsx,main,absent,search,0,1,1,1,8,4,68,4,2,418.7915,circle,rectangle,pentagon,hexagon,diamond,DR,DM,UR,DL,UL,#6A6A6A,#6A6A6A,#6A6A6A,#6A6A6A,absent,absent,absent,absent,right,2,2,right,right,left,left,grey,#6A6A6A,#6A6A6A,absent,num_2,1,0.4187915,13995,1,1,21,f,right,normal,2022_Dec_06_1204,ADD/ADHD_FSM_NoProbe_version1,2021.1.4,99.91337505
trials.xlsx,main,absent,search,0,1,1,1,8,5,69,7,2,627.6899,circle,rectangle,pentagon,hexagon,diamond,DL,UR,UL,DM,DR,#6A6A6A,#6A6A6A,#6A6A6A,#6A6A6A,absent,absent,absent,absent,left,1,1,right,right,left,right,grey,#6A6A6A,#6A6A6A,absent,num_1,1,0.6276899,13995,1,1,21,f,right,normal,2022_Dec_06_1204,ADD/ADHD_FSM_NoProbe_version1,2021.1.4,99.91337505
trials.xlsx,main,present,search,0,1,1,1,8,6,70,1,2,950.5843,circle,rectangle,pentagon,hexagon,diamond,UR,DM,UL,DL,DR,#7546FF,#6A6A6A,#6A6A6A,#6A6A6A,present,DM,right,dist1,left,1,1,right,left,left,right,grey,#6A6A6A,#7546FF,purple,num_1,1,0.9505843,13995,1,1,21,f,right,normal,2022_Dec_06_1204,ADD/ADHD_FSM_NoProbe_version1,2021.1.4,99.91337505
trials.xlsx,main,present,search,0,1,1,1,8,7,71,3,2,798.8544999,circle,rectangle,pentagon,hexagon,diamond,UL,DM,DL,UR,DR,#6A6A6A,#6A6A6A,#7546FF,#6A6A6A,present,UR,right,dist3,right,2,2,right,left,right,left,grey,#6A6A6A,#7546FF,purple,num_2,1,0.7988545,13995,1,1,21,f,right,normal,2022_Dec_06_1204,ADD/ADHD_FSM_NoProbe_version1,2021.1.4,99.91337505
trials.xlsx,main,absent,search,0,1,1,1,9,0,72,7,2,539.0786,circle,rectangle,pentagon,hexagon,diamond,UL,DM,UR,DR,DL,#6A6A6A,#6A6A6A,#6A6A6A,#6A6A6A,absent,absent,absent,absent,right,2,2,left,left,left,right,grey,#6A6A6A,#6A6A6A,absent,num_2,1,0.5390786,13995,1,1,21,f,right,normal,2022_Dec_06_1204,ADD/ADHD_FSM_NoProbe_version1,2021.1.4,99.91337505
trials.xlsx,main,absent,search,0,1,1,1,9,1,73,4,2,679.8341001,circle,rectangle,pentagon,hexagon,diamond,UR,DL,UL,DR,DM,#6A6A6A,#6A6A6A,#6A6A6A,#6A6A6A,absent,absent,absent,absent,left,1,1,right,left,right,left,grey,#6A6A6A,#6A6A6A,absent,num_1,1,0.6798341,13995,1,1,21,f,right,normal,2022_Dec_06_1204,ADD/ADHD_FSM_NoProbe_version1,2021.1.4,99.91337505
trials.xlsx,main,present,search,0,1,1,1,9,2,74,1,2,608.9912,circle,rectangle,pentagon,hexagon,diamond,UL,DM,UR,DL,DR,#6A6A6A,#6A6A6A,#6A6A6A,#7546FF,present,DR,left,dist4,right,2,2,left,right,right,left,grey,#6A6A6A,#7546FF,purple,num_2,1,0.6089912,13995,1,1,21,f,right,normal,2022_Dec_06_1204,ADD/ADHD_FSM_NoProbe_version1,2021.1.4,99.91337505
trials.xlsx,main,present,search,0,1,1,1,9,3,75,0,2,551.7044,circle,rectangle,pentagon,hexagon,diamond,UL,DL,DR,DM,UR,#6A6A6A,#7546FF,#6A6A6A,#6A6A6A,present,DR,left,dist2,left,1,1,right,left,right,left,grey,#6A6A6A,#7546FF,purple,num_1,1,0.5517044,13995,1,1,21,f,right,normal,2022_Dec_06_1204,ADD/ADHD_FSM_NoProbe_version1,2021.1.4,99.91337505
trials.xlsx,main,present,search,0,1,1,1,9,4,76,3,2,992.5777999,circle,rectangle,pentagon,hexagon,diamond,DR,DL,UR,DM,UL,#6A6A6A,#7546FF,#6A6A6A,#6A6A6A,present,UR,left,dist2,left,1,1,right,left,left,right,grey,#6A6A6A,#7546FF,purple,num_1,1,0.9925778,13995,1,1,21,f,right,normal,2022_Dec_06_1204,ADD/ADHD_FSM_NoProbe_version1,2021.1.4,99.91337505
trials.xlsx,main,absent,search,0,1,1,1,9,5,77,5,2,762.8849,circle,rectangle,pentagon,hexagon,diamond,UL,DL,DR,UR,DM,#6A6A6A,#6A6A6A,#6A6A6A,#6A6A6A,absent,absent,absent,absent,right,2,2,right,left,left,left,grey,#6A6A6A,#6A6A6A,absent,num_2,1,0.7628849,13995,1,1,21,f,right,normal,2022_Dec_06_1204,ADD/ADHD_FSM_NoProbe_version1,2021.1.4,99.91337505
trials.xlsx,main,present,search,0,1,1,1,9,6,78,2,2,781.5053001,circle,rectangle,pentagon,hexagon,diamond,DR,UL,UR,DM,DL,#6A6A6A,#6A6A6A,#6A6A6A,#7546FF,present,DL,left,dist4,left,1,1,right,right,left,left,grey,#6A6A6A,#7546FF,purple,num_1,1,0.7815053,13995,1,1,21,f,right,normal,2022_Dec_06_1204,ADD/ADHD_FSM_NoProbe_version1,2021.1.4,99.91337505
trials.xlsx,main,absent,search,0,1,1,1,9,7,79,6,2,536.3113,circle,rectangle,pentagon,hexagon,diamond,DL,UR,UL,DR,DM,#6A6A6A,#6A6A6A,#6A6A6A,#6A6A6A,absent,absent,absent,absent,right,2,2,right,left,right,left,grey,#6A6A6A,#6A6A6A,absent,num_2,1,0.5363113,13995,1,1,21,f,right,normal,2022_Dec_06_1204,ADD/ADHD_FSM_NoProbe_version1,2021.1.4,99.91337505
trials.xlsx,main,present,search,0,1,1,1,10,0,80,2,2,536.9421,circle,rectangle,pentagon,hexagon,diamond,DM,UL,UR,DR,DL,#7546FF,#6A6A6A,#6A6A6A,#6A6A6A,present,UL,left,dist1,left,1,1,left,right,right,left,grey,#6A6A6A,#7546FF,purple,num_1,1,0.5369421,13995,1,1,21,f,right,normal,2022_Dec_06_1204,ADD/ADHD_FSM_NoProbe_version1,2021.1.4,99.91337505
trials.xlsx,main,present,search,0,1,1,1,10,1,81,1,2,897.78,circle,rectangle,pentagon,hexagon,diamond,DL,DR,DM,UL,UR,#7546FF,#6A6A6A,#6A6A6A,#6A6A6A,present,DR,right,dist1,left,1,1,right,right,left,right,grey,#6A6A6A,#7546FF,purple,num_1,1,0.89778,13995,1,1,21,f,right,normal,2022_Dec_06_1204,ADD/ADHD_FSM_NoProbe_version1,2021.1.4,99.91337505
trials.xlsx,main,absent,search,0,1,1,1,10,2,82,4,2,650.2762999,circle,rectangle,pentagon,hexagon,diamond,DM,UR,UL,DL,DR,#6A6A6A,#6A6A6A,#6A6A6A,#6A6A6A,absent,absent,absent,absent,left,1,1,left,left,right,right,grey,#6A6A6A,#6A6A6A,absent,num_1,1,0.6502763,13995,1,1,21,f,right,normal,2022_Dec_06_1204,ADD/ADHD_FSM_NoProbe_version1,2021.1.4,99.91337505
trials.xlsx,main,present,search,0,1,1,1,10,3,83,3,2,697.1084999,circle,rectangle,pentagon,hexagon,diamond,DM,UR,DL,UL,DR,#6A6A6A,#6A6A6A,#7546FF,#6A6A6A,present,UL,right,dist3,right,2,2,right,left,right,left,grey,#6A6A6A,#7546FF,purple,num_2,1,0.6971085,13995,1,1,21,f,right,normal,2022_Dec_06_1204,ADD/ADHD_FSM_NoProbe_version1,2021.1.4,99.91337505
trials.xlsx,main,present,search,0,1,1,1,10,4,84,0,2,625.3579999,circle,rectangle,pentagon,hexagon,diamond,DL,UR,DM,UL,DR,#6A6A6A,#7546FF,#6A6A6A,#6A6A6A,present,DM,left,dist2,left,1,1,left,left,right,right,grey,#6A6A6A,#7546FF,purple,num_1,1,0.625358,13995,1,1,21,f,right,normal,2022_Dec_06_1204,ADD/ADHD_FSM_NoProbe_version1,2021.1.4,99.91337505
trials.xlsx,main,absent,search,0,1,1,1,10,5,85,6,2,727.8572001,circle,rectangle,pentagon,hexagon,diamond,DR,UL,DL,DM,UR,#6A6A6A,#6A6A6A,#6A6A6A,#6A6A6A,absent,absent,absent,absent,left,1,1,right,left,left,right,grey,#6A6A6A,#6A6A6A,absent,num_1,1,0.7278572,13995,1,1,21,f,right,normal,2022_Dec_06_1204,ADD/ADHD_FSM_NoProbe_version1,2021.1.4,99.91337505
trials.xlsx,main,absent,search,0,1,1,1,10,6,86,5,2,972.5177999,circle,rectangle,pentagon,hexagon,diamond,UL,UR,DR,DL,DM,#6A6A6A,#6A6A6A,#6A6A6A,#6A6A6A,absent,absent,absent,absent,left,1,1,left,right,right,left,grey,#6A6A6A,#6A6A6A,absent,num_1,1,0.9725178,13995,1,1,21,f,right,normal,2022_Dec_06_1204,ADD/ADHD_FSM_NoProbe_version1,2021.1.4,99.91337505
trials.xlsx,main,absent,search,0,1,1,1,10,7,87,7,2,516.9723999,circle,rectangle,pentagon,hexagon,diamond,DM,DL,UL,DR,UR,#6A6A6A,#6A6A6A,#6A6A6A,#6A6A6A,absent,absent,absent,absent,left,1,1,right,left,left,right,grey,#6A6A6A,#6A6A6A,absent,num_1,1,0.5169724,13995,1,1,21,f,right,normal,2022_Dec_06_1204,ADD/ADHD_FSM_NoProbe_version1,2021.1.4,99.91337505
trials.xlsx,main,present,search,0,1,1,1,11,0,88,1,2,652.2871,circle,rectangle,pentagon,hexagon,diamond,UR,DL,DM,DR,UL,#6A6A6A,#6A6A6A,#6A6A6A,#7546FF,present,UL,left,dist4,left,1,1,right,left,right,left,grey,#6A6A6A,#7546FF,purple,num_1,1,0.6522871,13995,1,1,21,f,right,normal,2022_Dec_06_1204,ADD/ADHD_FSM_NoProbe_version1,2021.1.4,99.91337505
trials.xlsx,main,absent,search,0,1,1,1,11,1,89,7,2,514.4894,circle,rectangle,pentagon,hexagon,diamond,DR,UR,DL,UL,DM,#6A6A6A,#6A6A6A,#6A6A6A,#6A6A6A,absent,absent,absent,absent,right,2,2,right,left,left,right,grey,#6A6A6A,#6A6A6A,absent,num_2,1,0.5144894,13995,1,1,21,f,right,normal,2022_Dec_06_1204,ADD/ADHD_FSM_NoProbe_version1,2021.1.4,99.91337505
trials.xlsx,main,absent,search,0,1,1,1,11,2,90,5,2,627.7796,circle,rectangle,pentagon,hexagon,diamond,DM,DL,DR,UL,UR,#6A6A6A,#6A6A6A,#6A6A6A,#6A6A6A,absent,absent,absent,absent,right,2,2,left,right,left,right,grey,#6A6A6A,#6A6A6A,absent,num_2,1,0.6277796,13995,1,1,21,f,right,normal,2022_Dec_06_1204,ADD/ADHD_FSM_NoProbe_version1,2021.1.4,99.91337505
trials.xlsx,main,absent,search,0,1,1,1,11,3,91,6,2,502.5931,circle,rectangle,pentagon,hexagon,diamond,DM,UR,DL,DR,UL,#6A6A6A,#6A6A6A,#6A6A6A,#6A6A6A,absent,absent,absent,absent,left,1,1,right,left,left,right,grey,#6A6A6A,#6A6A6A,absent,num_1,1,0.5025931,13995,1,1,21,f,right,normal,2022_Dec_06_1204,ADD/ADHD_FSM_NoProbe_version1,2021.1.4,99.91337505
trials.xlsx,main,present,search,0,1,1,1,11,4,92,2,2,824.8367,circle,rectangle,pentagon,hexagon,diamond,UL,DR,DL,DM,UR,#6A6A6A,#6A6A6A,#6A6A6A,#7546FF,present,UR,right,dist4,right,2,2,left,left,left,right,grey,#6A6A6A,#7546FF,purple,num_2,1,0.8248367,13995,1,1,21,f,right,normal,2022_Dec_06_1204,ADD/ADHD_FSM_NoProbe_version1,2021.1.4,99.91337505
trials.xlsx,main,present,search,0,1,1,1,11,5,93,3,2,685.4134001,circle,rectangle,pentagon,hexagon,diamond,DM,UR,UL,DR,DL,#6A6A6A,#6A6A6A,#6A6A6A,#7546FF,present,DL,left,dist4,left,1,1,right,left,right,left,grey,#6A6A6A,#7546FF,purple,num_1,1,0.6854134,13995,1,1,21,f,right,normal,2022_Dec_06_1204,ADD/ADHD_FSM_NoProbe_version1,2021.1.4,99.91337505
trials.xlsx,main,present,search,0,1,1,1,11,6,94,0,2,496.7918,circle,rectangle,pentagon,hexagon,diamond,DM,UR,DR,UL,DL,#6A6A6A,#6A6A6A,#6A6A6A,#7546FF,present,DL,right,dist4,left,1,1,right,right,left,right,grey,#6A6A6A,#7546FF,purple,num_1,1,0.4967918,13995,1,1,21,f,right,normal,2022_Dec_06_1204,ADD/ADHD_FSM_NoProbe_version1,2021.1.4,99.91337505
trials.xlsx,main,absent,search,0,1,1,1,11,7,95,4,3,630.8574999,circle,rectangle,pentagon,hexagon,diamond,DL,DR,UL,UR,DM,#6A6A6A,#6A6A6A,#6A6A6A,#6A6A6A,absent,absent,absent,absent,right,2,2,left,right,left,left,grey,#6A6A6A,#6A6A6A,absent,num_2,1,0.6308575,13995,1,1,21,f,right,normal,2022_Dec_06_1204,ADD/ADHD_FSM_NoProbe_version1,2021.1.4,99.91337505
trials.xlsx,main,absent,search,0,1,1,1,12,0,96,5,3,850.5154001,circle,rectangle,pentagon,hexagon,diamond,DR,DM,UR,DL,UL,#6A6A6A,#6A6A6A,#6A6A6A,#6A6A6A,absent,absent,absent,absent,right,2,2,left,right,right,left,grey,#6A6A6A,#6A6A6A,absent,num_2,1,0.8505154,13995,1,1,21,f,right,normal,2022_Dec_06_1204,ADD/ADHD_FSM_NoProbe_version1,2021.1.4,99.91337505
trials.xlsx,main,present,search,0,1,1,1,12,1,97,2,3,983.2990001,circle,rectangle,pentagon,hexagon,diamond,UL,DL,UR,DR,DM,#6A6A6A,#6A6A6A,#6A6A6A,#009C79,present,DM,left,dist4,left,1,1,right,left,right,left,grey,#6A6A6A,#009C79,greenish-blue,num_1,1,0.983299,13995,1,1,21,f,right,normal,2022_Dec_06_1204,ADD/ADHD_FSM_NoProbe_version1,2021.1.4,99.91337505
trials.xlsx,main,present,search,0,1,1,1,12,2,98,1,3,579.2361001,circle,rectangle,pentagon,hexagon,diamond,DR,UL,DM,UR,DL,#6A6A6A,#009C79,#6A6A6A,#6A6A6A,present,DM,left,dist2,right,2,2,right,left,right,left,grey,#6A6A6A,#009C79,greenish-blue,num_2,1,0.5792361,13995,1,1,21,f,right,normal,2022_Dec_06_1204,ADD/ADHD_FSM_NoProbe_version1,2021.1.4,99.91337505
trials.xlsx,main,present,search,0,1,1,1,12,3,99,0,3,690.4504,circle,rectangle,pentagon,hexagon,diamond,DR,DM,UR,UL,DL,#6A6A6A,#6A6A6A,#009C79,#6A6A6A,present,UL,right,dist3,left,1,1,left,right,right,right,grey,#6A6A6A,#009C79,greenish-blue,num_1,1,0.6904504,13995,1,1,21,f,right,normal,2022_Dec_06_1204,ADD/ADHD_FSM_NoProbe_version1,2021.1.4,99.91337505
trials.xlsx,main,present,search,0,1,1,1,12,4,100,3,3,508.5785,circle,rectangle,pentagon,hexagon,diamond,DM,DR,DL,UL,UR,#6A6A6A,#009C79,#6A6A6A,#6A6A6A,present,DL,left,dist2,left,1,1,right,left,left,right,grey,#6A6A6A,#009C79,greenish-blue,num_1,1,0.5085785,13995,1,1,21,f,right,normal,2022_Dec_06_1204,ADD/ADHD_FSM_NoProbe_version1,2021.1.4,99.91337505
trials.xlsx,main,absent,search,0,1,1,1,12,5,101,6,3,421.86,circle,rectangle,pentagon,hexagon,diamond,DM,UR,DR,DL,UL,#6A6A6A,#6A6A6A,#6A6A6A,#6A6A6A,absent,absent,absent,absent,left,1,1,right,left,right,left,grey,#6A6A6A,#6A6A6A,absent,num_1,1,0.42186,13995,1,1,21,f,right,normal,2022_Dec_06_1204,ADD/ADHD_FSM_NoProbe_version1,2021.1.4,99.91337505
trials.xlsx,main,absent,search,0,1,1,1,12,6,102,4,3,706.7286,circle,rectangle,pentagon,hexagon,diamond,DR,DL,DM,UL,UR,#6A6A6A,#6A6A6A,#6A6A6A,#6A6A6A,absent,absent,absent,absent,left,1,1,right,right,left,right,grey,#6A6A6A,#6A6A6A,absent,num_1,1,0.7067286,13995,1,1,21,f,right,normal,2022_Dec_06_1204,ADD/ADHD_FSM_NoProbe_version1,2021.1.4,99.91337505
trials.xlsx,main,absent,search,0,1,1,1,12,7,103,7,3,711.4917,circle,rectangle,pentagon,hexagon,diamond,UL,UR,DR,DL,DM,#6A6A6A,#6A6A6A,#6A6A6A,#6A6A6A,absent,absent,absent,absent,left,1,1,left,right,left,right,grey,#6A6A6A,#6A6A6A,absent,num_1,1,0.7114917,13995,1,1,21,f,right,normal,2022_Dec_06_1204,ADD/ADHD_FSM_NoProbe_version1,2021.1.4,99.91337505
trials.xlsx,main,absent,search,0,1,1,1,13,0,104,4,3,817.5086001,circle,rectangle,pentagon,hexagon,diamond,DL,DM,UR,UL,DR,#6A6A6A,#6A6A6A,#6A6A6A,#6A6A6A,absent,absent,absent,absent,left,1,1,right,right,right,left,grey,#6A6A6A,#6A6A6A,absent,num_1,1,0.8175086,13995,1,1,21,f,right,normal,2022_Dec_06_1204,ADD/ADHD_FSM_NoProbe_version1,2021.1.4,99.91337505
trials.xlsx,main,present,search,0,1,1,1,13,1,105,1,3,492.7299001,circle,rectangle,pentagon,hexagon,diamond,DL,DR,DM,UR,UL,#6A6A6A,#009C79,#6A6A6A,#6A6A6A,present,DM,left,dist2,left,1,1,right,left,left,right,grey,#6A6A6A,#009C79,greenish-blue,num_1,1,0.4927299,13995,1,1,21,f,right,normal,2022_Dec_06_1204,ADD/ADHD_FSM_NoProbe_version1,2021.1.4,99.91337505
trials.xlsx,main,absent,search,0,1,1,1,13,2,106,7,3,391.492,circle,rectangle,pentagon,hexagon,diamond,DL,UR,DM,DR,UL,#6A6A6A,#6A6A6A,#6A6A6A,#6A6A6A,absent,absent,absent,absent,left,1,1,right,left,left,right,grey,#6A6A6A,#6A6A6A,absent,num_1,1,0.391492,13995,1,1,21,f,right,normal,2022_Dec_06_1204,ADD/ADHD_FSM_NoProbe_version1,2021.1.4,99.91337505
trials.xlsx,main,absent,search,0,1,1,1,13,3,107,5,3,904.2942,circle,rectangle,pentagon,hexagon,diamond,UR,DR,UL,DM,DL,#6A6A6A,#6A6A6A,#6A6A6A,#6A6A6A,absent,absent,absent,absent,left,1,1,right,right,left,left,grey,#6A6A6A,#6A6A6A,absent,num_1,1,0.9042942,13995,1,1,21,f,right,normal,2022_Dec_06_1204,ADD/ADHD_FSM_NoProbe_version1,2021.1.4,99.91337505
trials.xlsx,main,present,search,0,1,1,1,13,4,108,0,3,491.0107,circle,rectangle,pentagon,hexagon,diamond,UR,DM,UL,DL,DR,#009C79,#6A6A6A,#6A6A6A,#6A6A6A,present,DM,left,dist1,left,1,1,left,right,right,right,grey,#6A6A6A,#009C79,greenish-blue,num_1,1,0.4910107,13995,1,1,21,f,right,normal,2022_Dec_06_1204,ADD/ADHD_FSM_NoProbe_version1,2021.1.4,99.91337505
trials.xlsx,main,present,search,0,1,1,1,13,5,109,2,3,745.6714,circle,rectangle,pentagon,hexagon,diamond,DL,UL,UR,DR,DM,#6A6A6A,#009C79,#6A6A6A,#6A6A6A,present,UR,left,dist2,right,2,2,right,left,left,right,grey,#6A6A6A,#009C79,greenish-blue,num_2,1,0.7456714,13995,1,1,21,f,right,normal,2022_Dec_06_1204,ADD/ADHD_FSM_NoProbe_version1,2021.1.4,99.91337505
trials.xlsx,main,present,search,0,1,1,1,13,6,110,3,3,740.4290001,circle,rectangle,pentagon,hexagon,diamond,DR,UL,DM,UR,DL,#009C79,#6A6A6A,#6A6A6A,#6A6A6A,present,UL,right,dist1,right,2,2,right,right,left,left,grey,#6A6A6A,#009C79,greenish-blue,num_2,1,0.740429,13995,1,1,21,f,right,normal,2022_Dec_06_1204,ADD/ADHD_FSM_NoProbe_version1,2021.1.4,99.91337505
trials.xlsx,main,absent,search,0,1,1,1,13,7,111,6,3,626.9192999,circle,rectangle,pentagon,hexagon,diamond,UR,UL,DR,DL,DM,#6A6A6A,#6A6A6A,#6A6A6A,#6A6A6A,absent,absent,absent,absent,right,2,2,right,left,left,right,grey,#6A6A6A,#6A6A6A,absent,num_2,1,0.6269193,13995,1,1,21,f,right,normal,2022_Dec_06_1204,ADD/ADHD_FSM_NoProbe_version1,2021.1.4,99.91337505
trials.xlsx,main,absent,search,0,1,1,1,14,0,112,7,3,569.8147999,circle,rectangle,pentagon,hexagon,diamond,DL,DM,UL,DR,UR,#6A6A6A,#6A6A6A,#6A6A6A,#6A6A6A,absent,absent,absent,absent,left,1,1,right,left,right,left,grey,#6A6A6A,#6A6A6A,absent,num_1,1,0.5698148,13995,1,1,21,f,right,normal,2022_Dec_06_1204,ADD/ADHD_FSM_NoProbe_version1,2021.1.4,99.91337505
trials.xlsx,main,absent,search,0,1,1,1,14,1,113,6,3,705.893,circle,rectangle,pentagon,hexagon,diamond,UL,DR,UR,DL,DM,#6A6A6A,#6A6A6A,#6A6A6A,#6A6A6A,absent,absent,absent,absent,right,2,2,left,right,left,left,grey,#6A6A6A,#6A6A6A,absent,num_2,1,0.705893,13995,1,1,21,f,right,normal,2022_Dec_06_1204,ADD/ADHD_FSM_NoProbe_version1,2021.1.4,99.91337505
trials.xlsx,main,present,search,0,1,1,1,14,2,114,2,3,562.6996,circle,rectangle,pentagon,hexagon,diamond,UL,DR,DM,DL,UR,#6A6A6A,#009C79,#6A6A6A,#6A6A6A,present,DM,left,dist2,right,2,2,left,left,right,right,grey,#6A6A6A,#009C79,greenish-blue,num_2,1,0.5626996,13995,1,1,21,f,right,normal,2022_Dec_06_1204,ADD/ADHD_FSM_NoProbe_version1,2021.1.4,99.91337505
trials.xlsx,main,present,search,0,1,1,1,14,3,115,1,3,655.3264,circle,rectangle,pentagon,hexagon,diamond,UR,DL,DM,DR,UL,#6A6A6A,#6A6A6A,#6A6A6A,#009C79,present,UL,right,dist4,left,1,1,right,left,right,right,grey,#6A6A6A,#009C79,greenish-blue,num_1,1,0.6553264,13995,1,1,21,f,right,normal,2022_Dec_06_1204,ADD/ADHD_FSM_NoProbe_version1,2021.1.4,99.91337505
trials.xlsx,main,present,search,0,1,1,1,14,4,116,3,3,924.4745,circle,rectangle,pentagon,hexagon,diamond,DL,UL,DR,UR,DM,#6A6A6A,#6A6A6A,#009C79,#6A6A6A,present,UR,left,dist3,left,1,1,right,right,left,left,grey,#6A6A6A,#009C79,greenish-blue,num_1,1,0.9244745,13995,1,1,21,f,right,normal,2022_Dec_06_1204,ADD/ADHD_FSM_NoProbe_version1,2021.1.4,99.91337505
trials.xlsx,main,absent,search,0,1,1,1,14,5,117,4,3,585.3407,circle,rectangle,pentagon,hexagon,diamond,DM,DR,DL,UR,UL,#6A6A6A,#6A6A6A,#6A6A6A,#6A6A6A,absent,absent,absent,absent,right,2,2,right,left,left,right,grey,#6A6A6A,#6A6A6A,absent,num_2,1,0.5853407,13995,1,1,21,f,right,normal,2022_Dec_06_1204,ADD/ADHD_FSM_NoProbe_version1,2021.1.4,99.91337505
trials.xlsx,main,absent,search,0,1,1,1,14,6,118,5,3,631.815,circle,rectangle,pentagon,hexagon,diamond,DL,UR,DR,DM,UL,#6A6A6A,#6A6A6A,#6A6A6A,#6A6A6A,absent,absent,absent,absent,left,1,1,right,left,right,left,grey,#6A6A6A,#6A6A6A,absent,num_1,1,0.631815,13995,1,1,21,f,right,normal,2022_Dec_06_1204,ADD/ADHD_FSM_NoProbe_version1,2021.1.4,99.91337505
trials.xlsx,main,present,search,0,1,1,1,14,7,119,0,3,740.5015,circle,rectangle,pentagon,hexagon,diamond,UL,DL,UR,DR,DM,#6A6A6A,#009C79,#6A6A6A,#6A6A6A,present,UR,left,dist2,left,1,1,right,left,right,left,grey,#6A6A6A,#009C79,greenish-blue,num_1,1,0.7405015,13995,1,1,21,f,right,normal,2022_Dec_06_1204,ADD/ADHD_FSM_NoProbe_version1,2021.1.4,99.91337505
trials.xlsx,main,absent,search,0,1,1,1,15,0,120,7,3,611.2564999,circle,rectangle,pentagon,hexagon,diamond,DR,UR,UL,DL,DM,#6A6A6A,#6A6A6A,#6A6A6A,#6A6A6A,absent,absent,absent,absent,left,1,1,right,right,left,right,grey,#6A6A6A,#6A6A6A,absent,num_1,1,0.6112565,13995,1,1,21,f,right,normal,2022_Dec_06_1204,ADD/ADHD_FSM_NoProbe_version1,2021.1.4,99.91337505
trials.xlsx,main,present,search,0,1,1,1,15,1,121,3,3,555.9661,circle,rectangle,pentagon,hexagon,diamond,DL,UL,DM,UR,DR,#6A6A6A,#6A6A6A,#6A6A6A,#009C79,present,DR,left,dist4,left,1,1,right,left,right,left,grey,#6A6A6A,#009C79,greenish-blue,num_1,1,0.5559661,13995,1,1,21,f,right,normal,2022_Dec_06_1204,ADD/ADHD_FSM_NoProbe_version1,2021.1.4,99.91337505
trials.xlsx,main,present,search,0,1,1,1,15,2,122,1,3,574.6305999,circle,rectangle,pentagon,hexagon,diamond,UL,DL,UR,DR,DM,#6A6A6A,#6A6A6A,#6A6A6A,#009C79,present,DM,right,dist4,right,2,2,left,left,right,right,grey,#6A6A6A,#009C79,greenish-blue,num_2,1,0.5746306,13995,1,1,21,f,right,normal,2022_Dec_06_1204,ADD/ADHD_FSM_NoProbe_version1,2021.1.4,99.91337505
trials.xlsx,main,present,search,0,1,1,1,15,3,123,0,3,647.3703999,circle,rectangle,pentagon,hexagon,diamond,UL,DM,UR,DL,DR,#6A6A6A,#6A6A6A,#009C79,#6A6A6A,present,DL,left,dist3,right,2,2,right,left,left,right,grey,#6A6A6A,#009C79,greenish-blue,num_2,1,0.6473704,13995,1,1,21,f,right,normal,2022_Dec_06_1204,ADD/ADHD_FSM_NoProbe_version1,2021.1.4,99.91337505
trials.xlsx,main,absent,search,0,1,1,1,15,4,124,4,3,694.2536001,circle,rectangle,pentagon,hexagon,diamond,DM,UR,UL,DR,DL,#6A6A6A,#6A6A6A,#6A6A6A,#6A6A6A,absent,absent,absent,absent,right,2,2,right,left,left,right,grey,#6A6A6A,#6A6A6A,absent,num_2,1,0.6942536,13995,1,1,21,f,right,normal,2022_Dec_06_1204,ADD/ADHD_FSM_NoProbe_version1,2021.1.4,99.91337505
trials.xlsx,main,present,search,0,1,1,1,15,5,125,2,3,574.8197,circle,rectangle,pentagon,hexagon,diamond,DR,UL,DL,UR,DM,#6A6A6A,#6A6A6A,#009C79,#6A6A6A,present,UR,left,dist3,right,2,2,right,left,left,left,grey,#6A6A6A,#009C79,greenish-blue,num_2,1,0.5748197,13995,1,1,21,f,right,normal,2022_Dec_06_1204,ADD/ADHD_FSM_NoProbe_version1,2021.1.4,99.91337505
trials.xlsx,main,absent,search,0,1,1,1,15,6,126,5,3,715.5445,circle,rectangle,pentagon,hexagon,diamond,DL,UR,UL,DM,DR,#6A6A6A,#6A6A6A,#6A6A6A,#6A6A6A,absent,absent,absent,absent,left,1,1,left,right,right,right,grey,#6A6A6A,#6A6A6A,absent,num_1,1,0.7155445,13995,1,1,21,f,right,normal,2022_Dec_06_1204,ADD/ADHD_FSM_NoProbe_version1,2021.1.4,99.91337505
trials.xlsx,main,absent,search,0,1,1,1,15,7,127,6,3,628.2927999,circle,rectangle,pentagon,hexagon,diamond,DL,UL,DM,DR,UR,#6A6A6A,#6A6A6A,#6A6A6A,#6A6A6A,absent,absent,absent,absent,right,2,2,right,left,right,left,grey,#6A6A6A,#6A6A6A,absent,num_2,1,0.6282928,13995,1,1,21,f,right,normal,2022_Dec_06_1204,ADD/ADHD_FSM_NoProbe_version1,2021.1.4,99.91337505
trials.xlsx,main,absent,search,0,1,1,1,16,0,128,7,3,548.9046,circle,rectangle,pentagon,hexagon,diamond,DR,DM,UR,UL,DL,#6A6A6A,#6A6A6A,#6A6A6A,#6A6A6A,absent,absent,absent,absent,left,1,1,left,right,right,left,grey,#6A6A6A,#6A6A6A,absent,num_1,1,0.5489046,13995,1,1,21,f,right,normal,2022_Dec_06_1204,ADD/ADHD_FSM_NoProbe_version1,2021.1.4,99.91337505
trials.xlsx,main,absent,search,0,1,1,1,16,1,129,6,3,485.7673,circle,rectangle,pentagon,hexagon,diamond,UR,DL,DM,DR,UL,#6A6A6A,#6A6A6A,#6A6A6A,#6A6A6A,absent,absent,absent,absent,right,2,2,left,left,right,right,grey,#6A6A6A,#6A6A6A,absent,num_2,1,0.4857673,13995,1,1,21,f,right,normal,2022_Dec_06_1204,ADD/ADHD_FSM_NoProbe_version1,2021.1.4,99.91337505
trials.xlsx,main,absent,search,0,1,1,1,16,2,130,5,3,646.1048,circle,rectangle,pentagon,hexagon,diamond,DM,DL,UR,DR,UL,#6A6A6A,#6A6A6A,#6A6A6A,#6A6A6A,absent,absent,absent,absent,right,2,2,right,right,left,left,grey,#6A6A6A,#6A6A6A,absent,num_2,1,0.6461048,13995,1,1,21,f,right,normal,2022_Dec_06_1204,ADD/ADHD_FSM_NoProbe_version1,2021.1.4,99.91337505
trials.xlsx,main,present,search,0,1,1,1,16,3,131,3,3,479.3187,circle,rectangle,pentagon,hexagon,diamond,UR,UL,DM,DR,DL,#6A6A6A,#6A6A6A,#009C79,#6A6A6A,present,DR,left,dist3,right,2,2,left,left,left,right,grey,#6A6A6A,#009C79,greenish-blue,num_2,1,0.4793187,13995,1,1,21,f,right,normal,2022_Dec_06_1204,ADD/ADHD_FSM_NoProbe_version1,2021.1.4,99.91337505
trials.xlsx,main,present,search,0,1,1,1,16,4,132,2,3,1109.9458,circle,rectangle,pentagon,hexagon,diamond,UL,DR,DM,UR,DL,#009C79,#6A6A6A,#6A6A6A,#6A6A6A,present,DR,left,dist1,right,2,2,left,left,right,right,grey,#6A6A6A,#009C79,greenish-blue,num_2,1,1.1099458,13995,1,1,21,f,right,normal,2022_Dec_06_1204,ADD/ADHD_FSM_NoProbe_version1,2021.1.4,99.91337505
trials.xlsx,main,present,search,0,1,1,1,16,5,133,1,3,630.5941,circle,rectangle,pentagon,hexagon,diamond,DL,UL,DR,UR,DM,#6A6A6A,#6A6A6A,#6A6A6A,#009C79,present,DM,right,dist4,right,2,2,left,right,left,right,grey,#6A6A6A,#009C79,greenish-blue,num_2,1,0.6305941,13995,1,1,21,f,right,normal,2022_Dec_06_1204,ADD/ADHD_FSM_NoProbe_version1,2021.1.4,99.91337505
trials.xlsx,main,present,search,0,1,1,1,16,6,134,0,3,825.1231001,circle,rectangle,pentagon,hexagon,diamond,UL,UR,DR,DL,DM,#6A6A6A,#6A6A6A,#6A6A6A,#009C79,present,DM,right,dist4,left,1,1,left,right,left,right,grey,#6A6A6A,#009C79,greenish-blue,num_1,1,0.8251231,13995,1,1,21,f,right,normal,2022_Dec_06_1204,ADD/ADHD_FSM_NoProbe_version1,2021.1.4,99.91337505
trials.xlsx,main,absent,search,0,1,1,1,16,7,135,4,3,763.7748,circle,rectangle,pentagon,hexagon,diamond,UL,DL,DR,UR,DM,#6A6A6A,#6A6A6A,#6A6A6A,#6A6A6A,absent,absent,absent,absent,left,1,1,right,left,left,right,grey,#6A6A6A,#6A6A6A,absent,num_1,1,0.7637748,13995,1,1,21,f,right,normal,2022_Dec_06_1204,ADD/ADHD_FSM_NoProbe_version1,2021.1.4,99.91337505
trials.xlsx,main,absent,search,0,1,1,1,17,0,136,6,3,695.8444,circle,rectangle,pentagon,hexagon,diamond,UR,DR,DL,UL,DM,#6A6A6A,#6A6A6A,#6A6A6A,#6A6A6A,absent,absent,absent,absent,right,2,2,left,right,left,left,grey,#6A6A6A,#6A6A6A,absent,num_2,1,0.6958444,13995,1,1,21,f,right,normal,2022_Dec_06_1204,ADD/ADHD_FSM_NoProbe_version1,2021.1.4,99.91337505
trials.xlsx,main,absent,search,0,1,1,1,17,1,137,5,3,576.6363001,circle,rectangle,pentagon,hexagon,diamond,UL,DR,DL,DM,UR,#6A6A6A,#6A6A6A,#6A6A6A,#6A6A6A,absent,absent,absent,absent,left,1,1,left,right,left,right,grey,#6A6A6A,#6A6A6A,absent,num_1,1,0.5766363,13995,1,1,21,f,right,normal,2022_Dec_06_1204,ADD/ADHD_FSM_NoProbe_version1,2021.1.4,99.91337505
trials.xlsx,main,present,search,0,1,1,1,17,2,138,0,3,715.3450999,circle,rectangle,pentagon,hexagon,diamond,DR,DL,UL,DM,UR,#6A6A6A,#009C79,#6A6A6A,#6A6A6A,present,UL,right,dist2,right,2,2,left,right,left,right,grey,#6A6A6A,#009C79,greenish-blue,num_2,1,0.7153451,13995,1,1,21,f,right,normal,2022_Dec_06_1204,ADD/ADHD_FSM_NoProbe_version1,2021.1.4,99.91337505
trials.xlsx,main,absent,search,0,1,1,1,17,3,139,4,3,621.9258,circle,rectangle,pentagon,hexagon,diamond,DM,UR,UL,DL,DR,#6A6A6A,#6A6A6A,#6A6A6A,#6A6A6A,absent,absent,absent,absent,right,2,2,left,left,right,left,grey,#6A6A6A,#6A6A6A,absent,num_2,1,0.6219258,13995,1,1,21,f,right,normal,2022_Dec_06_1204,ADD/ADHD_FSM_NoProbe_version1,2021.1.4,99.91337505
trials.xlsx,main,present,search,0,1,1,1,17,4,140,1,3,729.2822001,circle,rectangle,pentagon,hexagon,diamond,UR,DM,DL,DR,UL,#6A6A6A,#009C79,#6A6A6A,#6A6A6A,present,DL,right,dist2,left,1,1,right,right,left,left,grey,#6A6A6A,#009C79,greenish-blue,num_1,1,0.7292822,13995,1,1,21,f,right,normal,2022_Dec_06_1204,ADD/ADHD_FSM_NoProbe_version1,2021.1.4,99.91337505
trials.xlsx,main,present,search,0,1,1,1,17,5,141,3,3,539.4756,circle,rectangle,pentagon,hexagon,diamond,DR,UL,UR,DL,DM,#009C79,#6A6A6A,#6A6A6A,#6A6A6A,present,UL,right,dist1,right,2,2,right,left,right,left,grey,#6A6A6A,#009C79,greenish-blue,num_2,1,0.5394756,13995,1,1,21,f,right,normal,2022_Dec_06_1204,ADD/ADHD_FSM_NoProbe_version1,2021.1.4,99.91337505
trials.xlsx,main,absent,search,0,1,1,1,17,6,142,7,3,868.1019,circle,rectangle,pentagon,hexagon,diamond,DL,UR,DM,UL,DR,#6A6A6A,#6A6A6A,#6A6A6A,#6A6A6A,absent,absent,absent,absent,right,2,2,right,left,right,left,grey,#6A6A6A,#6A6A6A,absent,num_2,1,0.8681019,13995,1,1,21,f,right,normal,2022_Dec_06_1204,ADD/ADHD_FSM_NoProbe_version1,2021.1.4,99.91337505
trials.xlsx,main,present,search,0,1,1,1,17,7,143,2,3,800.79,circle,rectangle,pentagon,hexagon,diamond,DM,DL,UR,UL,DR,#009C79,#6A6A6A,#6A6A6A,#6A6A6A,present,DL,left,dist1,left,1,1,left,right,right,left,grey,#6A6A6A,#009C79,greenish-blue,num_1,1,0.80079,13995,1,1,21,f,right,normal,2022_Dec_06_1204,ADD/ADHD_FSM_NoProbe_version1,2021.1.4,99.91337505
practice.xlsx,practice,absent,search,0,0,0,0,0,0,0,6,0,[],circle,rectangle,pentagon,hexagon,diamond,DL,DR,UR,UL,DM,#6A6A6A,#6A6A6A,#6A6A6A,#6A6A6A,absent,absent,absent,absent,left,1,[],right,right,right,left,grey,#6A6A6A,#6A6A6A,absent,None,0,NA,38433,1,1,22,f,right,corrected-to-normal vision,2022_Dec_06_1243,ADD/ADHD_FSM_NoProbe_version1,2021.1.4,99.95691873
practice.xlsx,practice,absent,search,0,0,0,0,0,1,1,16,0,[],circle,rectangle,pentagon,hexagon,diamond,DL,UR,UL,DR,DM,#6A6A6A,#6A6A6A,#6A6A6A,#6A6A6A,absent,absent,absent,absent,left,1,[],right,left,right,left,grey,#6A6A6A,#6A6A6A,absent,None,0,NA,38433,1,1,22,f,right,corrected-to-normal vision,2022_Dec_06_1243,ADD/ADHD_FSM_NoProbe_version1,2021.1.4,99.95691873
practice.xlsx,practice,absent,search,0,0,0,0,0,2,2,11,0,732.4806999,circle,rectangle,pentagon,hexagon,diamond,DM,DR,UL,DL,UR,#6A6A6A,#6A6A6A,#6A6A6A,#6A6A6A,absent,absent,absent,absent,right,2,2,left,left,right,right,grey,#6A6A6A,#6A6A6A,absent,num_2,1,0.7324807,38433,1,1,22,f,right,corrected-to-normal vision,2022_Dec_06_1243,ADD/ADHD_FSM_NoProbe_version1,2021.1.4,99.95691873
practice.xlsx,practice,absent,search,0,0,0,0,0,3,3,3,0,741.0165002,circle,rectangle,pentagon,hexagon,diamond,UL,DL,UR,DR,DM,#6A6A6A,#6A6A6A,#6A6A6A,#6A6A6A,absent,absent,absent,absent,left,1,1,right,left,right,left,grey,#6A6A6A,#6A6A6A,absent,num_1,1,0.7410165,38433,1,1,22,f,right,corrected-to-normal vision,2022_Dec_06_1243,ADD/ADHD_FSM_NoProbe_version1,2021.1.4,99.95691873
practice.xlsx,practice,absent,search,0,0,0,0,0,4,4,17,0,659.5067,circle,rectangle,pentagon,hexagon,diamond,UL,DM,UR,DR,DL,#6A6A6A,#6A6A6A,#6A6A6A,#6A6A6A,absent,absent,absent,absent,right,2,2,left,left,right,left,grey,#6A6A6A,#6A6A6A,absent,num_2,1,0.6595067,38433,1,1,22,f,right,corrected-to-normal vision,2022_Dec_06_1243,ADD/ADHD_FSM_NoProbe_version1,2021.1.4,99.95691873
practice.xlsx,practice,absent,search,0,0,0,0,0,5,5,14,0,536.2406,circle,rectangle,pentagon,hexagon,diamond,UL,UR,DR,DL,DM,#6A6A6A,#6A6A6A,#6A6A6A,#6A6A6A,absent,absent,absent,absent,right,2,2,right,left,left,right,grey,#6A6A6A,#6A6A6A,absent,num_2,1,0.5362406,38433,1,1,22,f,right,corrected-to-normal vision,2022_Dec_06_1243,ADD/ADHD_FSM_NoProbe_version1,2021.1.4,99.95691873
practice.xlsx,practice,absent,search,0,0,0,0,0,6,6,0,0,395.2056,circle,rectangle,pentagon,hexagon,diamond,UL,DL,DR,UR,DM,#6A6A6A,#6A6A6A,#6A6A6A,#6A6A6A,absent,absent,absent,absent,right,2,2,left,right,left,left,grey,#6A6A6A,#6A6A6A,absent,num_2,1,0.3952056,38433,1,1,22,f,right,corrected-to-normal vision,2022_Dec_06_1243,ADD/ADHD_FSM_NoProbe_version1,2021.1.4,99.95691873
practice.xlsx,practice,absent,search,0,0,0,0,0,7,7,1,0,511.8606999,circle,rectangle,pentagon,hexagon,diamond,UL,UR,DL,DR,DM,#6A6A6A,#6A6A6A,#6A6A6A,#6A6A6A,absent,absent,absent,absent,right,2,2,left,left,left,right,grey,#6A6A6A,#6A6A6A,absent,num_2,1,0.5118607,38433,1,1,22,f,right,corrected-to-normal vision,2022_Dec_06_1243,ADD/ADHD_FSM_NoProbe_version1,2021.1.4,99.95691873
practice.xlsx,practice,absent,search,0,0,0,0,0,8,8,8,0,882.6295,circle,rectangle,pentagon,hexagon,diamond,DL,DR,UL,UR,DM,#6A6A6A,#6A6A6A,#6A6A6A,#6A6A6A,absent,absent,absent,absent,left,1,1,right,left,right,left,grey,#6A6A6A,#6A6A6A,absent,num_1,1,0.8826295,38433,1,1,22,f,right,corrected-to-normal vision,2022_Dec_06_1243,ADD/ADHD_FSM_NoProbe_version1,2021.1.4,99.95691873
practice.xlsx,practice,absent,search,0,0,0,0,0,9,9,5,0,629.2222,circle,rectangle,pentagon,hexagon,diamond,DL,DR,UR,UL,DM,#6A6A6A,#6A6A6A,#6A6A6A,#6A6A6A,absent,absent,absent,absent,left,1,1,left,right,right,left,grey,#6A6A6A,#6A6A6A,absent,num_1,1,0.6292222,38433,1,1,22,f,right,corrected-to-normal vision,2022_Dec_06_1243,ADD/ADHD_FSM_NoProbe_version1,2021.1.4,99.95691873
practice.xlsx,practice,absent,search,0,0,0,0,0,10,10,13,0,758.1326,circle,rectangle,pentagon,hexagon,diamond,DM,DR,UL,DL,UR,#6A6A6A,#6A6A6A,#6A6A6A,#6A6A6A,absent,absent,absent,absent,left,1,1,left,left,right,right,grey,#6A6A6A,#6A6A6A,absent,num_1,1,0.7581326,38433,1,1,22,f,right,corrected-to-normal vision,2022_Dec_06_1243,ADD/ADHD_FSM_NoProbe_version1,2021.1.4,99.95691873
practice.xlsx,practice,absent,search,0,0,0,0,0,11,11,19,0,1192.8887,circle,rectangle,pentagon,hexagon,diamond,UL,UR,DL,DM,DR,#6A6A6A,#6A6A6A,#6A6A6A,#6A6A6A,absent,absent,absent,absent,left,1,1,left,right,left,right,grey,#6A6A6A,#6A6A6A,absent,num_1,1,1.1928887,38433,1,1,22,f,right,corrected-to-normal vision,2022_Dec_06_1243,ADD/ADHD_FSM_NoProbe_version1,2021.1.4,99.95691873
practice.xlsx,practice,absent,search,0,0,0,0,0,12,12,15,0,976.4322999,circle,rectangle,pentagon,hexagon,diamond,UR,UL,DR,DM,DL,#6A6A6A,#6A6A6A,#6A6A6A,#6A6A6A,absent,absent,absent,absent,left,1,1,right,left,left,right,grey,#6A6A6A,#6A6A6A,absent,num_1,1,0.9764323,38433,1,1,22,f,right,corrected-to-normal vision,2022_Dec_06_1243,ADD/ADHD_FSM_NoProbe_version1,2021.1.4,99.95691873
practice.xlsx,practice,absent,search,0,0,0,0,0,13,13,7,0,789.4979001,circle,rectangle,pentagon,hexagon,diamond,UR,UL,DM,DR,DL,#6A6A6A,#6A6A6A,#6A6A6A,#6A6A6A,absent,absent,absent,absent,right,2,2,left,left,left,right,grey,#6A6A6A,#6A6A6A,absent,num_2,1,0.7894979,38433,1,1,22,f,right,corrected-to-normal vision,2022_Dec_06_1243,ADD/ADHD_FSM_NoProbe_version1,2021.1.4,99.95691873
practice.xlsx,practice,absent,search,0,0,0,0,0,14,14,12,0,941.6092001,circle,rectangle,pentagon,hexagon,diamond,DR,DM,UL,UR,DL,#6A6A6A,#6A6A6A,#6A6A6A,#6A6A6A,absent,absent,absent,absent,right,2,2,left,left,left,right,grey,#6A6A6A,#6A6A6A,absent,num_2,1,0.9416092,38433,1,1,22,f,right,corrected-to-normal vision,2022_Dec_06_1243,ADD/ADHD_FSM_NoProbe_version1,2021.1.4,99.95691873
practice.xlsx,practice,absent,search,0,0,0,0,0,15,15,2,0,888.0226,circle,rectangle,pentagon,hexagon,diamond,DM,UL,DR,UR,DL,#6A6A6A,#6A6A6A,#6A6A6A,#6A6A6A,absent,absent,absent,absent,left,1,1,left,left,right,right,grey,#6A6A6A,#6A6A6A,absent,num_1,1,0.8880226,38433,1,1,22,f,right,corrected-to-normal vision,2022_Dec_06_1243,ADD/ADHD_FSM_NoProbe_version1,2021.1.4,99.95691873
practice.xlsx,practice,absent,search,0,0,0,0,0,16,16,4,0,1013.1454,circle,rectangle,pentagon,hexagon,diamond,UR,DR,UL,DL,DM,#6A6A6A,#6A6A6A,#6A6A6A,#6A6A6A,absent,absent,absent,absent,left,1,1,left,right,left,right,grey,#6A6A6A,#6A6A6A,absent,num_1,1,1.0131454,38433,1,1,22,f,right,corrected-to-normal vision,2022_Dec_06_1243,ADD/ADHD_FSM_NoProbe_version1,2021.1.4,99.95691873
practice.xlsx,practice,absent,search,0,0,0,0,0,17,17,10,0,933.6005,circle,rectangle,pentagon,hexagon,diamond,DR,DM,DL,UR,UL,#6A6A6A,#6A6A6A,#6A6A6A,#6A6A6A,absent,absent,absent,absent,right,2,2,left,left,right,right,grey,#6A6A6A,#6A6A6A,absent,num_2,1,0.9336005,38433,1,1,22,f,right,corrected-to-normal vision,2022_Dec_06_1243,ADD/ADHD_FSM_NoProbe_version1,2021.1.4,99.95691873
practice.xlsx,practice,absent,search,0,0,0,0,0,18,18,18,0,733.5585,circle,rectangle,pentagon,hexagon,diamond,DL,DR,DM,UL,UR,#6A6A6A,#6A6A6A,#6A6A6A,#6A6A6A,absent,absent,absent,absent,right,2,2,left,right,left,left,grey,#6A6A6A,#6A6A6A,absent,num_2,1,0.7335585,38433,1,1,22,f,right,corrected-to-normal vision,2022_Dec_06_1243,ADD/ADHD_FSM_NoProbe_version1,2021.1.4,99.95691873
practice.xlsx,practice,absent,search,0,0,0,0,0,19,19,9,0,574.2381001,circle,rectangle,pentagon,hexagon,diamond,DL,DM,DR,UL,UR,#6A6A6A,#6A6A6A,#6A6A6A,#6A6A6A,absent,absent,absent,absent,right,2,2,right,left,left,right,grey,#6A6A6A,#6A6A6A,absent,num_2,1,0.5742381,38433,1,1,22,f,right,corrected-to-normal vision,2022_Dec_06_1243,ADD/ADHD_FSM_NoProbe_version1,2021.1.4,99.95691873
practice.xlsx,practice,absent,search,0,0,0,0,1,0,20,11,0,731.7703001,circle,rectangle,pentagon,hexagon,diamond,UL,DM,DL,DR,UR,#6A6A6A,#6A6A6A,#6A6A6A,#6A6A6A,absent,absent,absent,absent,left,1,1,right,right,left,left,grey,#6A6A6A,#6A6A6A,absent,num_1,1,0.7317703,38433,1,1,22,f,right,corrected-to-normal vision,2022_Dec_06_1243,ADD/ADHD_FSM_NoProbe_version1,2021.1.4,99.95691873
practice.xlsx,practice,absent,search,0,0,0,0,1,1,21,1,0,931.8674,circle,rectangle,pentagon,hexagon,diamond,DM,UR,DR,DL,UL,#6A6A6A,#6A6A6A,#6A6A6A,#6A6A6A,absent,absent,absent,absent,right,2,2,left,right,right,left,grey,#6A6A6A,#6A6A6A,absent,num_2,1,0.9318674,38433,1,1,22,f,right,corrected-to-normal vision,2022_Dec_06_1243,ADD/ADHD_FSM_NoProbe_version1,2021.1.4,99.95691873
practice.xlsx,practice,absent,search,0,0,0,0,1,2,22,9,0,986.6328998,circle,rectangle,pentagon,hexagon,diamond,DR,UL,UR,DL,DM,#6A6A6A,#6A6A6A,#6A6A6A,#6A6A6A,absent,absent,absent,absent,left,1,1,right,left,right,right,grey,#6A6A6A,#6A6A6A,absent,num_1,1,0.9866329,38433,1,1,22,f,right,corrected-to-normal vision,2022_Dec_06_1243,ADD/ADHD_FSM_NoProbe_version1,2021.1.4,99.95691873
practice.xlsx,practice,absent,search,0,0,0,0,1,3,23,5,0,691.1359001,circle,rectangle,pentagon,hexagon,diamond,UR,DM,DR,DL,UL,#6A6A6A,#6A6A6A,#6A6A6A,#6A6A6A,absent,absent,absent,absent,right,2,2,left,right,right,left,grey,#6A6A6A,#6A6A6A,absent,num_2,1,0.6911359,38433,1,1,22,f,right,corrected-to-normal vision,2022_Dec_06_1243,ADD/ADHD_FSM_NoProbe_version1,2021.1.4,99.95691873
practice.xlsx,practice,absent,search,0,0,0,0,1,4,24,13,1,573.5732,circle,rectangle,pentagon,hexagon,diamond,DR,DL,DM,UL,UR,#6A6A6A,#6A6A6A,#6A6A6A,#6A6A6A,absent,absent,absent,absent,left,1,1,left,right,right,left,grey,#6A6A6A,#6A6A6A,absent,num_1,1,0.5735732,38433,1,1,22,f,right,corrected-to-normal vision,2022_Dec_06_1243,ADD/ADHD_FSM_NoProbe_version1,2021.1.4,99.95691873
trials.xlsx,main,absent,search,0,1,1,1,0,0,0,4,1,721.1912002,circle,rectangle,pentagon,hexagon,diamond,DL,DM,DR,UR,UL,#6A6A6A,#6A6A6A,#6A6A6A,#6A6A6A,absent,absent,absent,absent,left,1,1,right,right,left,right,grey,#6A6A6A,#6A6A6A,absent,num_1,1,0.7211912,38433,1,1,22,f,right,corrected-to-normal vision,2022_Dec_06_1243,ADD/ADHD_FSM_NoProbe_version1,2021.1.4,99.95691873
trials.xlsx,main,present,search,0,1,1,1,0,1,1,3,1,959.6124,circle,rectangle,pentagon,hexagon,diamond,DR,UR,DL,UL,DM,#6A6A6A,#009C79,#6A6A6A,#6A6A6A,present,DL,right,dist2,right,2,2,right,right,left,left,grey,#6A6A6A,#009C79,greenish-blue,num_2,1,0.9596124,38433,1,1,22,f,right,corrected-to-normal vision,2022_Dec_06_1243,ADD/ADHD_FSM_NoProbe_version1,2021.1.4,99.95691873
trials.xlsx,main,absent,search,0,1,1,1,0,2,2,5,1,766.0828,circle,rectangle,pentagon,hexagon,diamond,DM,UR,UL,DR,DL,#6A6A6A,#6A6A6A,#6A6A6A,#6A6A6A,absent,absent,absent,absent,left,1,1,right,left,right,right,grey,#6A6A6A,#6A6A6A,absent,num_1,1,0.7660828,38433,1,1,22,f,right,corrected-to-normal vision,2022_Dec_06_1243,ADD/ADHD_FSM_NoProbe_version1,2021.1.4,99.95691873
trials.xlsx,main,absent,search,0,1,1,1,0,3,3,6,1,674.7434,circle,rectangle,pentagon,hexagon,diamond,UR,UL,DR,DL,DM,#6A6A6A,#6A6A6A,#6A6A6A,#6A6A6A,absent,absent,absent,absent,right,2,2,right,right,left,left,grey,#6A6A6A,#6A6A6A,absent,num_2,1,0.6747434,38433,1,1,22,f,right,corrected-to-normal vision,2022_Dec_06_1243,ADD/ADHD_FSM_NoProbe_version1,2021.1.4,99.95691873
trials.xlsx,main,absent,search,0,1,1,1,0,4,4,7,1,625.4251001,circle,rectangle,pentagon,hexagon,diamond,DR,DL,UR,UL,DM,#6A6A6A,#6A6A6A,#6A6A6A,#6A6A6A,absent,absent,absent,absent,left,1,1,left,right,left,right,grey,#6A6A6A,#6A6A6A,absent,num_1,1,0.6254251,38433,1,1,22,f,right,corrected-to-normal vision,2022_Dec_06_1243,ADD/ADHD_FSM_NoProbe_version1,2021.1.4,99.95691873
trials.xlsx,main,present,search,0,1,1,1,0,5,5,1,1,1006.127,circle,rectangle,pentagon,hexagon,diamond,UL,UR,DM,DL,DR,#6A6A6A,#6A6A6A,#6A6A6A,#009C79,present,DR,right,dist4,left,1,1,left,left,right,right,grey,#6A6A6A,#009C79,greenish-blue,num_1,1,1.006127,38433,1,1,22,f,right,corrected-to-normal vision,2022_Dec_06_1243,ADD/ADHD_FSM_NoProbe_version1,2021.1.4,99.95691873
trials.xlsx,main,present,search,0,1,1,1,0,6,6,0,1,776.1686,circle,rectangle,pentagon,hexagon,diamond,DM,DR,DL,UR,UL,#6A6A6A,#009C79,#6A6A6A,#6A6A6A,present,DL,left,dist2,left,1,1,right,left,right,right,grey,#6A6A6A,#009C79,greenish-blue,num_1,1,0.7761686,38433,1,1,22,f,right,corrected-to-normal vision,2022_Dec_06_1243,ADD/ADHD_FSM_NoProbe_version1,2021.1.4,99.95691873
trials.xlsx,main,present,search,0,1,1,1,0,7,7,2,1,1010.8821,circle,rectangle,pentagon,hexagon,diamond,DM,DR,UR,UL,DL,#009C79,#6A6A6A,#6A6A6A,#6A6A6A,present,DR,right,dist1,right,2,2,right,left,right,left,grey,#6A6A6A,#009C79,greenish-blue,num_2,1,1.0108821,38433,1,1,22,f,right,corrected-to-normal vision,2022_Dec_06_1243,ADD/ADHD_FSM_NoProbe_version1,2021.1.4,99.95691873
trials.xlsx,main,absent,search,0,1,1,1,1,0,8,5,1,803.8192999,circle,rectangle,pentagon,hexagon,diamond,DM,UR,DL,UL,DR,#6A6A6A,#6A6A6A,#6A6A6A,#6A6A6A,absent,absent,absent,absent,right,2,2,right,left,right,left,grey,#6A6A6A,#6A6A6A,absent,num_2,1,0.8038193,38433,1,1,22,f,right,corrected-to-normal vision,2022_Dec_06_1243,ADD/ADHD_FSM_NoProbe_version1,2021.1.4,99.95691873
trials.xlsx,main,present,search,0,1,1,1,1,1,9,2,1,656.2945999,circle,rectangle,pentagon,hexagon,diamond,DR,UL,DL,DM,UR,#6A6A6A,#6A6A6A,#009C79,#6A6A6A,present,DM,right,dist3,left,1,1,right,right,right,left,grey,#6A6A6A,#009C79,greenish-blue,num_1,1,0.6562946,38433,1,1,22,f,right,corrected-to-normal vision,2022_Dec_06_1243,ADD/ADHD_FSM_NoProbe_version1,2021.1.4,99.95691873
trials.xlsx,main,present,search,0,1,1,1,1,2,10,3,1,674.9952,circle,rectangle,pentagon,hexagon,diamond,UR,DL,UL,DM,DR,#6A6A6A,#009C79,#6A6A6A,#6A6A6A,present,UL,left,dist2,right,2,2,right,left,left,right,grey,#6A6A6A,#009C79,greenish-blue,num_2,1,0.6749952,38433,1,1,22,f,right,corrected-to-normal vision,2022_Dec_06_1243,ADD/ADHD_FSM_NoProbe_version1,2021.1.4,99.95691873
trials.xlsx,main,present,search,0,1,1,1,1,3,11,0,1,719.6913001,circle,rectangle,pentagon,hexagon,diamond,DL,DR,UR,UL,DM,#6A6A6A,#6A6A6A,#6A6A6A,#009C79,present,DM,left,dist4,right,2,2,right,right,left,left,grey,#6A6A6A,#009C79,greenish-blue,num_2,1,0.7196913,38433,1,1,22,f,right,corrected-to-normal vision,2022_Dec_06_1243,ADD/ADHD_FSM_NoProbe_version1,2021.1.4,99.95691873
trials.xlsx,main,absent,search,0,1,1,1,1,4,12,4,1,682.3041001,circle,rectangle,pentagon,hexagon,diamond,UL,DM,UR,DL,DR,#6A6A6A,#6A6A6A,#6A6A6A,#6A6A6A,absent,absent,absent,absent,right,2,2,right,left,right,left,grey,#6A6A6A,#6A6A6A,absent,num_2,1,0.6823041,38433,1,1,22,f,right,corrected-to-normal vision,2022_Dec_06_1243,ADD/ADHD_FSM_NoProbe_version1,2021.1.4,99.95691873
trials.xlsx,main,present,search,0,1,1,1,1,5,13,1,1,638.6993001,circle,rectangle,pentagon,hexagon,diamond,UR,UL,DL,DR,DM,#6A6A6A,#009C79,#6A6A6A,#6A6A6A,present,DL,left,dist2,left,1,1,left,left,right,right,grey,#6A6A6A,#009C79,greenish-blue,num_1,1,0.6386993,38433,1,1,22,f,right,corrected-to-normal vision,2022_Dec_06_1243,ADD/ADHD_FSM_NoProbe_version1,2021.1.4,99.95691873
trials.xlsx,main,absent,search,0,1,1,1,1,6,14,7,1,521.251,circle,rectangle,pentagon,hexagon,diamond,UL,DM,DL,UR,DR,#6A6A6A,#6A6A6A,#6A6A6A,#6A6A6A,absent,absent,absent,absent,left,1,1,right,right,left,right,grey,#6A6A6A,#6A6A6A,absent,num_1,1,0.521251,38433,1,1,22,f,right,corrected-to-normal vision,2022_Dec_06_1243,ADD/ADHD_FSM_NoProbe_version1,2021.1.4,99.95691873
trials.xlsx,main,absent,search,0,1,1,1,1,7,15,6,1,564.5224999,circle,rectangle,pentagon,hexagon,diamond,UR,DM,UL,DR,DL,#6A6A6A,#6A6A6A,#6A6A6A,#6A6A6A,absent,absent,absent,absent,left,1,1,right,left,right,right,grey,#6A6A6A,#6A6A6A,absent,num_1,1,0.5645225,38433,1,1,22,f,right,corrected-to-normal vision,2022_Dec_06_1243,ADD/ADHD_FSM_NoProbe_version1,2021.1.4,99.95691873
trials.xlsx,main,absent,search,0,1,1,1,2,0,16,5,1,557.2865999,circle,rectangle,pentagon,hexagon,diamond,DR,UR,DL,DM,UL,#6A6A6A,#6A6A6A,#6A6A6A,#6A6A6A,absent,absent,absent,absent,right,2,2,left,right,left,right,grey,#6A6A6A,#6A6A6A,absent,num_2,1,0.5572866,38433,1,1,22,f,right,corrected-to-normal vision,2022_Dec_06_1243,ADD/ADHD_FSM_NoProbe_version1,2021.1.4,99.95691873
trials.xlsx,main,absent,search,0,1,1,1,2,1,17,7,1,804.0285001,circle,rectangle,pentagon,hexagon,diamond,DM,UR,DR,UL,DL,#6A6A6A,#6A6A6A,#6A6A6A,#6A6A6A,absent,absent,absent,absent,right,2,2,right,left,right,left,grey,#6A6A6A,#6A6A6A,absent,num_2,1,0.8040285,38433,1,1,22,f,right,corrected-to-normal vision,2022_Dec_06_1243,ADD/ADHD_FSM_NoProbe_version1,2021.1.4,99.95691873
trials.xlsx,main,present,search,0,1,1,1,2,2,18,3,1,712.1891,circle,rectangle,pentagon,hexagon,diamond,UL,UR,DR,DM,DL,#6A6A6A,#6A6A6A,#009C79,#6A6A6A,present,DM,left,dist3,right,2,2,right,right,left,left,grey,#6A6A6A,#009C79,greenish-blue,num_2,1,0.7121891,38433,1,1,22,f,right,corrected-to-normal vision,2022_Dec_06_1243,ADD/ADHD_FSM_NoProbe_version1,2021.1.4,99.95691873
trials.xlsx,main,absent,search,0,1,1,1,2,3,19,4,1,514.9424002,circle,rectangle,pentagon,hexagon,diamond,UL,UR,DM,DL,DR,#6A6A6A,#6A6A6A,#6A6A6A,#6A6A6A,absent,absent,absent,absent,right,2,2,left,left,right,left,grey,#6A6A6A,#6A6A6A,absent,num_2,1,0.5149424,38433,1,1,22,f,right,corrected-to-normal vision,2022_Dec_06_1243,ADD/ADHD_FSM_NoProbe_version1,2021.1.4,99.95691873
trials.xlsx,main,present,search,0,1,1,1,2,4,20,2,1,853.6906999,circle,rectangle,pentagon,hexagon,diamond,DM,UR,DR,DL,UL,#6A6A6A,#009C79,#6A6A6A,#6A6A6A,present,DR,right,dist2,right,2,2,left,right,left,left,grey,#6A6A6A,#009C79,greenish-blue,num_2,1,0.8536907,38433,1,1,22,f,right,corrected-to-normal vision,2022_Dec_06_1243,ADD/ADHD_FSM_NoProbe_version1,2021.1.4,99.95691873
trials.xlsx,main,present,search,0,1,1,1,2,5,21,1,1,724.7639,circle,rectangle,pentagon,hexagon,diamond,UR,DR,DL,UL,DM,#6A6A6A,#009C79,#6A6A6A,#6A6A6A,present,DL,left,dist2,left,1,1,right,left,left,right,grey,#6A6A6A,#009C79,greenish-blue,num_1,1,0.7247639,38433,1,1,22,f,right,corrected-to-normal vision,2022_Dec_06_1243,ADD/ADHD_FSM_NoProbe_version1,2021.1.4,99.95691873
trials.xlsx,main,present,search,0,1,1,1,2,6,22,0,1,440.8561001,circle,rectangle,pentagon,hexagon,diamond,UR,DM,UL,DR,DL,#6A6A6A,#6A6A6A,#009C79,#6A6A6A,present,DR,right,dist3,right,2,2,left,left,right,right,grey,#6A6A6A,#009C79,greenish-blue,num_2,1,0.4408561,38433,1,1,22,f,right,corrected-to-normal vision,2022_Dec_06_1243,ADD/ADHD_FSM_NoProbe_version1,2021.1.4,99.95691873
trials.xlsx,main,absent,search,0,1,1,1,2,7,23,6,1,511.8424001,circle,rectangle,pentagon,hexagon,diamond,UR,UL,DL,DR,DM,#6A6A6A,#6A6A6A,#6A6A6A,#6A6A6A,absent,absent,absent,absent,left,1,1,right,right,right,left,grey,#6A6A6A,#6A6A6A,absent,num_1,1,0.5118424,38433,1,1,22,f,right,corrected-to-normal vision,2022_Dec_06_1243,ADD/ADHD_FSM_NoProbe_version1,2021.1.4,99.95691873
trials.xlsx,main,absent,search,0,1,1,1,3,0,24,4,1,556.9112001,circle,rectangle,pentagon,hexagon,diamond,DR,UR,DL,UL,DM,#6A6A6A,#6A6A6A,#6A6A6A,#6A6A6A,absent,absent,absent,absent,right,2,2,right,left,right,left,grey,#6A6A6A,#6A6A6A,absent,num_2,1,0.5569112,38433,1,1,22,f,right,corrected-to-normal vision,2022_Dec_06_1243,ADD/ADHD_FSM_NoProbe_version1,2021.1.4,99.95691873
trials.xlsx,main,present,search,0,1,1,1,3,1,25,2,1,595.1395,circle,rectangle,pentagon,hexagon,diamond,DR,DL,UL,DM,UR,#6A6A6A,#6A6A6A,#009C79,#6A6A6A,present,DM,right,dist3,left,1,1,left,left,right,right,grey,#6A6A6A,#009C79,greenish-blue,num_1,1,0.5951395,38433,1,1,22,f,right,corrected-to-normal vision,2022_Dec_06_1243,ADD/ADHD_FSM_NoProbe_version1,2021.1.4,99.95691873
trials.xlsx,main,present,search,0,1,1,1,3,2,26,0,1,602.0051001,circle,rectangle,pentagon,hexagon,diamond,UR,DM,DL,DR,UL,#6A6A6A,#6A6A6A,#6A6A6A,#009C79,present,UL,left,dist4,right,2,2,left,right,left,left,grey,#6A6A6A,#009C79,greenish-blue,num_2,1,0.6020051,38433,1,1,22,f,right,corrected-to-normal vision,2022_Dec_06_1243,ADD/ADHD_FSM_NoProbe_version1,2021.1.4,99.95691873
trials.xlsx,main,present,search,0,1,1,1,3,3,27,3,1,588.6854001,circle,rectangle,pentagon,hexagon,diamond,DR,DM,UR,UL,DL,#009C79,#6A6A6A,#6A6A6A,#6A6A6A,present,DM,right,dist1,right,2,2,right,left,left,right,grey,#6A6A6A,#009C79,greenish-blue,num_2,1,0.5886854,38433,1,1,22,f,right,corrected-to-normal vision,2022_Dec_06_1243,ADD/ADHD_FSM_NoProbe_version1,2021.1.4,99.95691873
trials.xlsx,main,absent,search,0,1,1,1,3,4,28,7,1,643.8925001,circle,rectangle,pentagon,hexagon,diamond,DL,UR,DM,UL,DR,#6A6A6A,#6A6A6A,#6A6A6A,#6A6A6A,absent,absent,absent,absent,right,2,2,right,right,left,left,grey,#6A6A6A,#6A6A6A,absent,num_2,1,0.6438925,38433,1,1,22,f,right,corrected-to-normal vision,2022_Dec_06_1243,ADD/ADHD_FSM_NoProbe_version1,2021.1.4,99.95691873
trials.xlsx,main,absent,search,0,1,1,1,3,5,29,6,1,486.6604998,circle,rectangle,pentagon,hexagon,diamond,DL,DR,DM,UL,UR,#6A6A6A,#6A6A6A,#6A6A6A,#6A6A6A,absent,absent,absent,absent,left,1,1,right,left,right,left,grey,#6A6A6A,#6A6A6A,absent,num_1,1,0.4866605,38433,1,1,22,f,right,corrected-to-normal vision,2022_Dec_06_1243,ADD/ADHD_FSM_NoProbe_version1,2021.1.4,99.95691873
trials.xlsx,main,present,search,0,1,1,1,3,6,30,1,1,585.5732001,circle,rectangle,pentagon,hexagon,diamond,DL,DM,UR,UL,DR,#6A6A6A,#009C79,#6A6A6A,#6A6A6A,present,UR,right,dist2,right,2,2,left,right,right,left,grey,#6A6A6A,#009C79,greenish-blue,num_2,1,0.5855732,38433,1,1,22,f,right,corrected-to-normal vision,2022_Dec_06_1243,ADD/ADHD_FSM_NoProbe_version1,2021.1.4,99.95691873
trials.xlsx,main,absent,search,0,1,1,1,3,7,31,5,1,698.2410999,circle,rectangle,pentagon,hexagon,diamond,UL,DR,DM,DL,UR,#6A6A6A,#6A6A6A,#6A6A6A,#6A6A6A,absent,absent,absent,absent,left,1,1,right,right,right,left,grey,#6A6A6A,#6A6A6A,absent,num_1,1,0.6982411,38433,1,1,22,f,right,corrected-to-normal vision,2022_Dec_06_1243,ADD/ADHD_FSM_NoProbe_version1,2021.1.4,99.95691873
trials.xlsx,main,absent,search,0,1,1,1,4,0,32,7,1,514.7517,circle,rectangle,pentagon,hexagon,diamond,UL,DR,UR,DM,DL,#6A6A6A,#6A6A6A,#6A6A6A,#6A6A6A,absent,absent,absent,absent,right,2,2,right,left,left,left,grey,#6A6A6A,#6A6A6A,absent,num_2,1,0.5147517,38433,1,1,22,f,right,corrected-to-normal vision,2022_Dec_06_1243,ADD/ADHD_FSM_NoProbe_version1,2021.1.4,99.95691873
trials.xlsx,main,absent,search,0,1,1,1,4,1,33,6,1,709.5768,circle,rectangle,pentagon,hexagon,diamond,UR,UL,DL,DR,DM,#6A6A6A,#6A6A6A,#6A6A6A,#6A6A6A,absent,absent,absent,absent,left,1,1,right,left,right,right,grey,#6A6A6A,#6A6A6A,absent,num_1,1,0.7095768,38433,1,1,22,f,right,corrected-to-normal vision,2022_Dec_06_1243,ADD/ADHD_FSM_NoProbe_version1,2021.1.4,99.95691873
trials.xlsx,main,absent,search,0,1,1,1,4,2,34,4,1,974.3645,circle,rectangle,pentagon,hexagon,diamond,DL,UL,UR,DR,DM,#6A6A6A,#6A6A6A,#6A6A6A,#6A6A6A,absent,absent,absent,absent,right,2,1,left,right,right,left,grey,#6A6A6A,#6A6A6A,absent,num_1,0,0.9743645,38433,1,1,22,f,right,corrected-to-normal vision,2022_Dec_06_1243,ADD/ADHD_FSM_NoProbe_version1,2021.1.4,99.95691873
trials.xlsx,main,present,search,0,1,1,1,4,3,35,1,1,660.4078,circle,rectangle,pentagon,hexagon,diamond,DM,DL,DR,UR,UL,#009C79,#6A6A6A,#6A6A6A,#6A6A6A,present,DL,left,dist1,right,2,2,left,right,right,left,grey,#6A6A6A,#009C79,greenish-blue,num_2,1,0.6604078,38433,1,1,22,f,right,corrected-to-normal vision,2022_Dec_06_1243,ADD/ADHD_FSM_NoProbe_version1,2021.1.4,99.95691873
trials.xlsx,main,present,search,0,1,1,1,4,4,36,0,1,825.4306,circle,rectangle,pentagon,hexagon,diamond,UR,DM,DR,UL,DL,#6A6A6A,#6A6A6A,#6A6A6A,#009C79,present,DL,left,dist4,right,2,2,right,left,left,left,grey,#6A6A6A,#009C79,greenish-blue,num_2,1,0.8254306,38433,1,1,22,f,right,corrected-to-normal vision,2022_Dec_06_1243,ADD/ADHD_FSM_NoProbe_version1,2021.1.4,99.95691873
trials.xlsx,main,absent,search,0,1,1,1,4,5,37,5,1,852.0777,circle,rectangle,pentagon,hexagon,diamond,DM,UR,DL,UL,DR,#6A6A6A,#6A6A6A,#6A6A6A,#6A6A6A,absent,absent,absent,absent,left,1,1,left,right,left,right,grey,#6A6A6A,#6A6A6A,absent,num_1,1,0.8520777,38433,1,1,22,f,right,corrected-to-normal vision,2022_Dec_06_1243,ADD/ADHD_FSM_NoProbe_version1,2021.1.4,99.95691873
trials.xlsx,main,present,search,0,1,1,1,4,6,38,2,1,566.7059,circle,rectangle,pentagon,hexagon,diamond,UL,DM,DR,DL,UR,#009C79,#6A6A6A,#6A6A6A,#6A6A6A,present,DM,right,dist1,left,1,1,right,right,left,right,grey,#6A6A6A,#009C79,greenish-blue,num_1,1,0.5667059,38433,1,1,22,f,right,corrected-to-normal vision,2022_Dec_06_1243,ADD/ADHD_FSM_NoProbe_version1,2021.1.4,99.95691873
trials.xlsx,main,present,search,0,1,1,1,4,7,39,3,1,639.3914998,circle,rectangle,pentagon,hexagon,diamond,UR,DL,UL,DR,DM,#6A6A6A,#6A6A6A,#009C79,#6A6A6A,present,DR,right,dist3,left,1,1,left,left,right,right,grey,#6A6A6A,#009C79,greenish-blue,num_1,1,0.6393915,38433,1,1,22,f,right,corrected-to-normal vision,2022_Dec_06_1243,ADD/ADHD_FSM_NoProbe_version1,2021.1.4,99.95691873
trials.xlsx,main,absent,search,0,1,1,1,5,0,40,5,1,886.2884999,circle,rectangle,pentagon,hexagon,diamond,DM,UL,DL,DR,UR,#6A6A6A,#6A6A6A,#6A6A6A,#6A6A6A,absent,absent,absent,absent,left,1,1,right,left,right,right,grey,#6A6A6A,#6A6A6A,absent,num_1,1,0.8862885,38433,1,1,22,f,right,corrected-to-normal vision,2022_Dec_06_1243,ADD/ADHD_FSM_NoProbe_version1,2021.1.4,99.95691873
trials.xlsx,main,present,search,0,1,1,1,5,1,41,3,1,742.7308999,circle,rectangle,pentagon,hexagon,diamond,DM,DL,UL,DR,UR,#6A6A6A,#009C79,#6A6A6A,#6A6A6A,present,UL,left,dist2,left,1,1,right,left,right,right,grey,#6A6A6A,#009C79,greenish-blue,num_1,1,0.7427309,38433,1,1,22,f,right,corrected-to-normal vision,2022_Dec_06_1243,ADD/ADHD_FSM_NoProbe_version1,2021.1.4,99.95691873
trials.xlsx,main,absent,search,0,1,1,1,5,2,42,4,1,597.2646,circle,rectangle,pentagon,hexagon,diamond,UR,DM,DL,UL,DR,#6A6A6A,#6A6A6A,#6A6A6A,#6A6A6A,absent,absent,absent,absent,right,2,2,right,right,left,left,grey,#6A6A6A,#6A6A6A,absent,num_2,1,0.5972646,38433,1,1,22,f,right,corrected-to-normal vision,2022_Dec_06_1243,ADD/ADHD_FSM_NoProbe_version1,2021.1.4,99.95691873
trials.xlsx,main,present,search,0,1,1,1,5,3,43,1,1,738.0528001,circle,rectangle,pentagon,hexagon,diamond,DM,UL,DR,DL,UR,#6A6A6A,#6A6A6A,#6A6A6A,#009C79,present,UR,left,dist4,left,1,1,right,right,right,left,grey,#6A6A6A,#009C79,greenish-blue,num_1,1,0.7380528,38433,1,1,22,f,right,corrected-to-normal vision,2022_Dec_06_1243,ADD/ADHD_FSM_NoProbe_version1,2021.1.4,99.95691873
trials.xlsx,main,absent,search,0,1,1,1,5,4,44,6,1,570.6364999,circle,rectangle,pentagon,hexagon,diamond,DM,DL,UR,DR,UL,#6A6A6A,#6A6A6A,#6A6A6A,#6A6A6A,absent,absent,absent,absent,left,1,1,right,left,right,left,grey,#6A6A6A,#6A6A6A,absent,num_1,1,0.5706365,38433,1,1,22,f,right,corrected-to-normal vision,2022_Dec_06_1243,ADD/ADHD_FSM_NoProbe_version1,2021.1.4,99.95691873
trials.xlsx,main,present,search,0,1,1,1,5,5,45,0,1,521.4256002,circle,rectangle,pentagon,hexagon,diamond,DM,DR,UL,DL,UR,#6A6A6A,#009C79,#6A6A6A,#6A6A6A,present,UL,right,dist2,left,1,1,right,right,right,left,grey,#6A6A6A,#009C79,greenish-blue,num_1,1,0.5214256,38433,1,1,22,f,right,corrected-to-normal vision,2022_Dec_06_1243,ADD/ADHD_FSM_NoProbe_version1,2021.1.4,99.95691873
trials.xlsx,main,present,search,0,1,1,1,5,6,46,2,1,766.2154001,circle,rectangle,pentagon,hexagon,diamond,UL,DL,UR,DR,DM,#009C79,#6A6A6A,#6A6A6A,#6A6A6A,present,DL,left,dist1,right,2,2,left,right,left,right,grey,#6A6A6A,#009C79,greenish-blue,num_2,1,0.7662154,38433,1,1,22,f,right,corrected-to-normal vision,2022_Dec_06_1243,ADD/ADHD_FSM_NoProbe_version1,2021.1.4,99.95691873
trials.xlsx,main,absent,search,0,1,1,1,5,7,47,7,2,768.839,circle,rectangle,pentagon,hexagon,diamond,DM,UL,DR,UR,DL,#6A6A6A,#6A6A6A,#6A6A6A,#6A6A6A,absent,absent,absent,absent,left,1,1,right,right,right,left,grey,#6A6A6A,#6A6A6A,absent,num_1,1,0.768839,38433,1,1,22,f,right,corrected-to-normal vision,2022_Dec_06_1243,ADD/ADHD_FSM_NoProbe_version1,2021.1.4,99.95691873
trials.xlsx,main,present,search,0,1,1,1,6,0,48,2,2,852.4233,circle,rectangle,pentagon,hexagon,diamond,DL,UL,DM,UR,DR,#6A6A6A,#7546FF,#6A6A6A,#6A6A6A,present,DM,left,dist2,right,2,2,right,left,right,left,grey,#6A6A6A,#7546FF,purple,num_2,1,0.8524233,38433,1,1,22,f,right,corrected-to-normal vision,2022_Dec_06_1243,ADD/ADHD_FSM_NoProbe_version1,2021.1.4,99.95691873
trials.xlsx,main,absent,search,0,1,1,1,6,1,49,4,2,688.9946002,circle,rectangle,pentagon,hexagon,diamond,UR,UL,DR,DL,DM,#6A6A6A,#6A6A6A,#6A6A6A,#6A6A6A,absent,absent,absent,absent,right,2,2,left,right,left,left,grey,#6A6A6A,#6A6A6A,absent,num_2,1,0.6889946,38433,1,1,22,f,right,corrected-to-normal vision,2022_Dec_06_1243,ADD/ADHD_FSM_NoProbe_version1,2021.1.4,99.95691873
trials.xlsx,main,absent,search,0,1,1,1,6,2,50,6,2,1091.6489,circle,rectangle,pentagon,hexagon,diamond,DR,UR,DL,UL,DM,#6A6A6A,#6A6A6A,#6A6A6A,#6A6A6A,absent,absent,absent,absent,right,2,2,left,right,right,left,grey,#6A6A6A,#6A6A6A,absent,num_2,1,1.0916489,38433,1,1,22,f,right,corrected-to-normal vision,2022_Dec_06_1243,ADD/ADHD_FSM_NoProbe_version1,2021.1.4,99.95691873
trials.xlsx,main,present,search,0,1,1,1,6,3,51,1,2,1128.1119,circle,rectangle,pentagon,hexagon,diamond,DM,UL,DL,UR,DR,#6A6A6A,#7546FF,#6A6A6A,#6A6A6A,present,DL,right,dist2,right,2,2,left,right,left,right,grey,#6A6A6A,#7546FF,purple,num_2,1,1.1281119,38433,1,1,22,f,right,corrected-to-normal vision,2022_Dec_06_1243,ADD/ADHD_FSM_NoProbe_version1,2021.1.4,99.95691873
trials.xlsx,main,absent,search,0,1,1,1,6,4,52,5,2,534.8892,circle,rectangle,pentagon,hexagon,diamond,DM,UL,DR,DL,UR,#6A6A6A,#6A6A6A,#6A6A6A,#6A6A6A,absent,absent,absent,absent,left,1,1,left,right,right,left,grey,#6A6A6A,#6A6A6A,absent,num_1,1,0.5348892,38433,1,1,22,f,right,corrected-to-normal vision,2022_Dec_06_1243,ADD/ADHD_FSM_NoProbe_version1,2021.1.4,99.95691873
trials.xlsx,main,present,search,0,1,1,1,6,5,53,0,2,665.3400999,circle,rectangle,pentagon,hexagon,diamond,DR,UL,DM,DL,UR,#6A6A6A,#6A6A6A,#6A6A6A,#7546FF,present,UR,left,dist4,right,2,2,right,right,left,left,grey,#6A6A6A,#7546FF,purple,num_2,1,0.6653401,38433,1,1,22,f,right,corrected-to-normal vision,2022_Dec_06_1243,ADD/ADHD_FSM_NoProbe_version1,2021.1.4,99.95691873
trials.xlsx,main,absent,search,0,1,1,1,6,6,54,7,2,942.0985,circle,rectangle,pentagon,hexagon,diamond,UL,DR,UR,DL,DM,#6A6A6A,#6A6A6A,#6A6A6A,#6A6A6A,absent,absent,absent,absent,left,1,1,right,left,right,left,grey,#6A6A6A,#6A6A6A,absent,num_1,1,0.9420985,38433,1,1,22,f,right,corrected-to-normal vision,2022_Dec_06_1243,ADD/ADHD_FSM_NoProbe_version1,2021.1.4,99.95691873
trials.xlsx,main,present,search,0,1,1,1,6,7,55,3,2,720.5021998,circle,rectangle,pentagon,hexagon,diamond,DL,DM,UL,DR,UR,#6A6A6A,#6A6A6A,#7546FF,#6A6A6A,present,DR,left,dist3,left,1,1,right,left,left,right,grey,#6A6A6A,#7546FF,purple,num_1,1,0.7205022,38433,1,1,22,f,right,corrected-to-normal vision,2022_Dec_06_1243,ADD/ADHD_FSM_NoProbe_version1,2021.1.4,99.95691873
trials.xlsx,main,absent,search,0,1,1,1,7,0,56,6,2,677.2160002,circle,rectangle,pentagon,hexagon,diamond,DL,UL,DM,DR,UR,#6A6A6A,#6A6A6A,#6A6A6A,#6A6A6A,absent,absent,absent,absent,right,2,2,left,right,right,left,grey,#6A6A6A,#6A6A6A,absent,num_2,1,0.677216,38433,1,1,22,f,right,corrected-to-normal vision,2022_Dec_06_1243,ADD/ADHD_FSM_NoProbe_version1,2021.1.4,99.95691873
trials.xlsx,main,present,search,0,1,1,1,7,1,57,2,2,662.0178998,circle,rectangle,pentagon,hexagon,diamond,DR,DL,DM,UR,UL,#7546FF,#6A6A6A,#6A6A6A,#6A6A6A,present,DL,right,dist1,left,1,1,right,left,right,left,grey,#6A6A6A,#7546FF,purple,num_1,1,0.6620179,38433,1,1,22,f,right,corrected-to-normal vision,2022_Dec_06_1243,ADD/ADHD_FSM_NoProbe_version1,2021.1.4,99.95691873
trials.xlsx,main,absent,search,0,1,1,1,7,2,58,4,2,738.5604999,circle,rectangle,pentagon,hexagon,diamond,DM,DL,UR,DR,UL,#6A6A6A,#6A6A6A,#6A6A6A,#6A6A6A,absent,absent,absent,absent,right,2,2,left,left,left,right,grey,#6A6A6A,#6A6A6A,absent,num_2,1,0.7385605,38433,1,1,22,f,right,corrected-to-normal vision,2022_Dec_06_1243,ADD/ADHD_FSM_NoProbe_version1,2021.1.4,99.95691873
trials.xlsx,main,absent,search,0,1,1,1,7,3,59,5,2,869.2686001,circle,rectangle,pentagon,hexagon,diamond,UR,UL,DM,DR,DL,#6A6A6A,#6A6A6A,#6A6A6A,#6A6A6A,absent,absent,absent,absent,right,2,2,right,left,left,left,grey,#6A6A6A,#6A6A6A,absent,num_2,1,0.8692686,38433,1,1,22,f,right,corrected-to-normal vision,2022_Dec_06_1243,ADD/ADHD_FSM_NoProbe_version1,2021.1.4,99.95691873
trials.xlsx,main,present,search,0,1,1,1,7,4,60,3,2,767.7575999,circle,rectangle,pentagon,hexagon,diamond,UL,DR,DM,UR,DL,#6A6A6A,#6A6A6A,#7546FF,#6A6A6A,present,UR,left,dist3,right,2,2,left,right,left,right,grey,#6A6A6A,#7546FF,purple,num_2,1,0.7677576,38433,1,1,22,f,right,corrected-to-normal vision,2022_Dec_06_1243,ADD/ADHD_FSM_NoProbe_version1,2021.1.4,99.95691873
trials.xlsx,main,present,search,0,1,1,1,7,5,61,0,2,891.9344002,circle,rectangle,pentagon,hexagon,diamond,DR,UL,DL,UR,DM,#6A6A6A,#6A6A6A,#7546FF,#6A6A6A,present,UR,right,dist3,right,2,2,left,left,right,right,grey,#6A6A6A,#7546FF,purple,num_2,1,0.8919344,38433,1,1,22,f,right,corrected-to-normal vision,2022_Dec_06_1243,ADD/ADHD_FSM_NoProbe_version1,2021.1.4,99.95691873
trials.xlsx,main,present,search,0,1,1,1,7,6,62,1,2,650.3999,circle,rectangle,pentagon,hexagon,diamond,DL,DM,DR,UR,UL,#6A6A6A,#6A6A6A,#6A6A6A,#7546FF,present,UL,left,dist4,right,2,2,left,right,right,left,grey,#6A6A6A,#7546FF,purple,num_2,1,0.6503999,38433,1,1,22,f,right,corrected-to-normal vision,2022_Dec_06_1243,ADD/ADHD_FSM_NoProbe_version1,2021.1.4,99.95691873
trials.xlsx,main,absent,search,0,1,1,1,7,7,63,7,2,735.8281,circle,rectangle,pentagon,hexagon,diamond,UL,DL,DR,UR,DM,#6A6A6A,#6A6A6A,#6A6A6A,#6A6A6A,absent,absent,absent,absent,left,1,1,left,right,right,right,grey,#6A6A6A,#6A6A6A,absent,num_1,1,0.7358281,38433,1,1,22,f,right,corrected-to-normal vision,2022_Dec_06_1243,ADD/ADHD_FSM_NoProbe_version1,2021.1.4,99.95691873
trials.xlsx,main,absent,search,0,1,1,1,8,0,64,6,2,632.3339001,circle,rectangle,pentagon,hexagon,diamond,UR,DR,DM,UL,DL,#6A6A6A,#6A6A6A,#6A6A6A,#6A6A6A,absent,absent,absent,absent,right,2,2,left,left,right,right,grey,#6A6A6A,#6A6A6A,absent,num_2,1,0.6323339,38433,1,1,22,f,right,corrected-to-normal vision,2022_Dec_06_1243,ADD/ADHD_FSM_NoProbe_version1,2021.1.4,99.95691873
trials.xlsx,main,present,search,0,1,1,1,8,1,65,3,2,771.0352999,circle,rectangle,pentagon,hexagon,diamond,DL,UR,UL,DR,DM,#6A6A6A,#6A6A6A,#6A6A6A,#7546FF,present,DM,right,dist4,right,2,2,left,right,left,right,grey,#6A6A6A,#7546FF,purple,num_2,1,0.7710353,38433,1,1,22,f,right,corrected-to-normal vision,2022_Dec_06_1243,ADD/ADHD_FSM_NoProbe_version1,2021.1.4,99.95691873
trials.xlsx,main,present,search,0,1,1,1,8,2,66,1,2,761.5356001,circle,rectangle,pentagon,hexagon,diamond,DR,DL,DM,UR,UL,#6A6A6A,#6A6A6A,#7546FF,#6A6A6A,present,UR,left,dist3,right,2,2,left,right,left,left,grey,#6A6A6A,#7546FF,purple,num_2,1,0.7615356,38433,1,1,22,f,right,corrected-to-normal vision,2022_Dec_06_1243,ADD/ADHD_FSM_NoProbe_version1,2021.1.4,99.95691873
trials.xlsx,main,present,search,0,1,1,1,8,3,67,2,2,790.3562,circle,rectangle,pentagon,hexagon,diamond,UR,DM,UL,DR,DL,#7546FF,#6A6A6A,#6A6A6A,#6A6A6A,present,DM,left,dist1,right,2,2,left,right,right,left,grey,#6A6A6A,#7546FF,purple,num_2,1,0.7903562,38433,1,1,22,f,right,corrected-to-normal vision,2022_Dec_06_1243,ADD/ADHD_FSM_NoProbe_version1,2021.1.4,99.95691873
trials.xlsx,main,present,search,0,1,1,1,8,4,68,0,2,570.3346001,circle,rectangle,pentagon,hexagon,diamond,UR,DL,DR,UL,DM,#6A6A6A,#6A6A6A,#7546FF,#6A6A6A,present,UL,left,dist3,right,2,2,right,right,left,left,grey,#6A6A6A,#7546FF,purple,num_2,1,0.5703346,38433,1,1,22,f,right,corrected-to-normal vision,2022_Dec_06_1243,ADD/ADHD_FSM_NoProbe_version1,2021.1.4,99.95691873
trials.xlsx,main,absent,search,0,1,1,1,8,5,69,7,2,873.6002999,circle,rectangle,pentagon,hexagon,diamond,DM,DR,DL,UL,UR,#6A6A6A,#6A6A6A,#6A6A6A,#6A6A6A,absent,absent,absent,absent,left,1,1,left,right,right,left,grey,#6A6A6A,#6A6A6A,absent,num_1,1,0.8736003,38433,1,1,22,f,right,corrected-to-normal vision,2022_Dec_06_1243,ADD/ADHD_FSM_NoProbe_version1,2021.1.4,99.95691873
trials.xlsx,main,absent,search,0,1,1,1,8,6,70,4,2,611.8876,circle,rectangle,pentagon,hexagon,diamond,DR,DL,UR,UL,DM,#6A6A6A,#6A6A6A,#6A6A6A,#6A6A6A,absent,absent,absent,absent,left,1,1,left,right,right,left,grey,#6A6A6A,#6A6A6A,absent,num_1,1,0.6118876,38433,1,1,22,f,right,corrected-to-normal vision,2022_Dec_06_1243,ADD/ADHD_FSM_NoProbe_version1,2021.1.4,99.95691873
trials.xlsx,main,absent,search,0,1,1,1,8,7,71,5,2,796.4525998,circle,rectangle,pentagon,hexagon,diamond,DM,UL,UR,DL,DR,#6A6A6A,#6A6A6A,#6A6A6A,#6A6A6A,absent,absent,absent,absent,left,1,1,left,right,right,left,grey,#6A6A6A,#6A6A6A,absent,num_1,1,0.7964526,38433,1,1,22,f,right,corrected-to-normal vision,2022_Dec_06_1243,ADD/ADHD_FSM_NoProbe_version1,2021.1.4,99.95691873
trials.xlsx,main,present,search,0,1,1,1,9,0,72,3,2,484.8987001,circle,rectangle,pentagon,hexagon,diamond,DM,DR,UR,UL,DL,#7546FF,#6A6A6A,#6A6A6A,#6A6A6A,present,DR,left,dist1,left,1,1,left,right,right,right,grey,#6A6A6A,#7546FF,purple,num_1,1,0.4848987,38433,1,1,22,f,right,corrected-to-normal vision,2022_Dec_06_1243,ADD/ADHD_FSM_NoProbe_version1,2021.1.4,99.95691873
trials.xlsx,main,present,search,0,1,1,1,9,1,73,1,2,639.7698,circle,rectangle,pentagon,hexagon,diamond,DL,DM,UR,DR,UL,#7546FF,#6A6A6A,#6A6A6A,#6A6A6A,present,DM,right,dist1,left,1,1,right,left,left,right,grey,#6A6A6A,#7546FF,purple,num_1,1,0.6397698,38433,1,1,22,f,right,corrected-to-normal vision,2022_Dec_06_1243,ADD/ADHD_FSM_NoProbe_version1,2021.1.4,99.95691873
trials.xlsx,main,absent,search,0,1,1,1,9,2,74,5,2,530.4022999,circle,rectangle,pentagon,hexagon,diamond,DR,DL,DM,UR,UL,#6A6A6A,#6A6A6A,#6A6A6A,#6A6A6A,absent,absent,absent,absent,left,1,1,left,left,right,right,grey,#6A6A6A,#6A6A6A,absent,num_1,1,0.5304023,38433,1,1,22,f,right,corrected-to-normal vision,2022_Dec_06_1243,ADD/ADHD_FSM_NoProbe_version1,2021.1.4,99.95691873
trials.xlsx,main,absent,search,0,1,1,1,9,3,75,4,2,655.2143998,circle,rectangle,pentagon,hexagon,diamond,UR,DM,UL,DR,DL,#6A6A6A,#6A6A6A,#6A6A6A,#6A6A6A,absent,absent,absent,absent,left,1,1,left,right,left,right,grey,#6A6A6A,#6A6A6A,absent,num_1,1,0.6552144,38433,1,1,22,f,right,corrected-to-normal vision,2022_Dec_06_1243,ADD/ADHD_FSM_NoProbe_version1,2021.1.4,99.95691873
trials.xlsx,main,absent,search,0,1,1,1,9,4,76,6,2,640.4194999,circle,rectangle,pentagon,hexagon,diamond,DR,UR,DM,DL,UL,#6A6A6A,#6A6A6A,#6A6A6A,#6A6A6A,absent,absent,absent,absent,right,2,2,right,right,left,left,grey,#6A6A6A,#6A6A6A,absent,num_2,1,0.6404195,38433,1,1,22,f,right,corrected-to-normal vision,2022_Dec_06_1243,ADD/ADHD_FSM_NoProbe_version1,2021.1.4,99.95691873
trials.xlsx,main,present,search,0,1,1,1,9,5,77,2,2,726.6368999,circle,rectangle,pentagon,hexagon,diamond,DL,DR,UL,DM,UR,#6A6A6A,#7546FF,#6A6A6A,#6A6A6A,present,UL,right,dist2,right,2,2,left,right,left,right,grey,#6A6A6A,#7546FF,purple,num_2,1,0.7266369,38433,1,1,22,f,right,corrected-to-normal vision,2022_Dec_06_1243,ADD/ADHD_FSM_NoProbe_version1,2021.1.4,99.95691873
trials.xlsx,main,present,search,0,1,1,1,9,6,78,0,2,516.0689999,circle,rectangle,pentagon,hexagon,diamond,DL,DM,UL,UR,DR,#6A6A6A,#6A6A6A,#7546FF,#6A6A6A,present,UR,left,dist3,right,2,2,left,right,left,right,grey,#6A6A6A,#7546FF,purple,num_2,1,0.516069,38433,1,1,22,f,right,corrected-to-normal vision,2022_Dec_06_1243,ADD/ADHD_FSM_NoProbe_version1,2021.1.4,99.95691873
trials.xlsx,main,absent,search,0,1,1,1,9,7,79,7,2,702.1836999,circle,rectangle,pentagon,hexagon,diamond,UL,DL,UR,DM,DR,#6A6A6A,#6A6A6A,#6A6A6A,#6A6A6A,absent,absent,absent,absent,left,1,1,left,right,right,right,grey,#6A6A6A,#6A6A6A,absent,num_1,1,0.7021837,38433,1,1,22,f,right,corrected-to-normal vision,2022_Dec_06_1243,ADD/ADHD_FSM_NoProbe_version1,2021.1.4,99.95691873
trials.xlsx,main,absent,search,0,1,1,1,10,0,80,4,2,1013.5557,circle,rectangle,pentagon,hexagon,diamond,UR,DM,UL,DL,DR,#6A6A6A,#6A6A6A,#6A6A6A,#6A6A6A,absent,absent,absent,absent,right,2,2,right,left,left,right,grey,#6A6A6A,#6A6A6A,absent,num_2,1,1.0135557,38433,1,1,22,f,right,corrected-to-normal vision,2022_Dec_06_1243,ADD/ADHD_FSM_NoProbe_version1,2021.1.4,99.95691873
trials.xlsx,main,absent,search,0,1,1,1,10,1,81,6,2,651.8130999,circle,rectangle,pentagon,hexagon,diamond,DR,DM,DL,UL,UR,#6A6A6A,#6A6A6A,#6A6A6A,#6A6A6A,absent,absent,absent,absent,right,2,2,left,left,right,left,grey,#6A6A6A,#6A6A6A,absent,num_2,1,0.6518131,38433,1,1,22,f,right,corrected-to-normal vision,2022_Dec_06_1243,ADD/ADHD_FSM_NoProbe_version1,2021.1.4,99.95691873
